{
  "name": "Sprint 9 Examples",
  "listOfPlannedAnalyses": {
    "listItems": [
      {
        "name": "Summary of Demographics",
        "order": 1,
        "sublist": {
          "listItems": [
            {
              "name": "Summary of Subjects by Treatment",
              "order": 1,
              "analysisId": "An01.5_SAF_ByTrt"
            },
            {
              "name": "Summary of Age by Treatment",
              "order": 2,
              "analysisId": "An03.1_Age_ByTrt"
            },
            {
              "name": "Summary of Age Group by Treatment",
              "order": 3,
              "analysisId": "An03.2_AgeGrp_ByTrt"
            },
            {
              "name": "Summary of Sex by Treatment",
              "order": 4,
              "analysisId": "An03.3_Sex_ByTrt"
            },
            {
              "name": "Summary of Ethnicity by Treatment",
              "order": 5,
              "analysisId": "An03.4_Ethnic_ByTrt"
            },
            {
              "name": "Summary of Race by Treatment",
              "order": 6,
              "analysisId": "An03.5_Race_ByTrt"
            },
            {
              "name": "Summary of Height by Treatment",
              "order": 7,
              "analysisId": "An03.6_Height_ByTrt"
            }
          ]
        },
        "outputId": "Out14.1.1"
      },
      {
        "name": "Summary of TEAE by System Organ Class and Preferred Term",
        "order": 2,
        "sublist": {
          "listItems": [
            {
              "name": "Summary of Subjects with At Least One Event by Treatment",
              "order": 1,
              "analysisId": "An07.1_AnyAE_ByTrt"
            },
            {
              "name": "Summary of Subjects with System Organ Class by Treatment",
              "order": 2,
              "analysisId": "An07.2_Soc_ByTrt"
            },
            {
              "name": "Summary of Subjects with Preferred Term by Treatment and System Organ Class",
              "order": 3,
              "analysisId": "An07.3_SocPt_ByTrt"
            }
          ]
        },
        "outputId": "Out14.3.1.1"
      }
    ]
  },
  "analysisSets": [
    {
      "id": "AnalysisSet_01_ITT",
      "condition": {
        "dataset": "ADSL",
        "variable": "ITTFL",
        "comparator": "EQ",
        "value": [
          "Y"
        ]
      },
      "order": 1,
      "label": "Intent-to-Treat Population"
    },
    {
      "id": "AnalysisSet_02_SAF",
      "condition": {
        "dataset": "ADSL",
        "variable": "SAFFL",
        "comparator": "EQ",
        "value": [
          "Y"
        ]
      },
      "order": 1,
      "label": "Safety Population"
    }
  ],
  "analysisGroupings": [
    {
      "id": "AnlsGrouping_01_Sex",
      "dataDriven": false,
      "label": "Gender",
      "groupingVariable": "SEX",
      "groups": [
        {
          "id": "AnlsGrouping_01_Sex_1",
          "condition": {
            "dataset": "ADSL",
            "variable": "SEX",
            "comparator": "EQ",
            "value": [
              "M"
            ]
          },
          "order": 1,
          "label": "Male"
        },
        {
          "id": "AnlsGrouping_01_Sex_2",
          "condition": {
            "dataset": "ADSL",
            "variable": "SEX",
            "comparator": "EQ",
            "value": [
              "F"
            ]
          },
          "order": 2,
          "label": "Female"
        }
      ]
    },
    {
      "id": "AnlsGrouping_02_Trt",
      "dataDriven": false,
      "label": "Treatment",
      "groupingVariable": "TRT01A",
      "groups": [
        {
          "id": "AnlsGrouping_02_Trt_1",
          "condition": {
            "dataset": "ADSL",
            "variable": "TRT01A",
            "comparator": "EQ",
            "value": [
              "Placebo"
            ]
          },
          "order": 1,
          "label": "Placebo"
        },
        {
          "id": "AnlsGrouping_02_Trt_2",
          "condition": {
            "dataset": "ADSL",
            "variable": "TRT01A",
            "comparator": "EQ",
            "value": [
              "Xanomeline Low Dose"
            ]
          },
          "order": 2,
          "label": "Xanomeline Low Dose"
        },
        {
          "id": "AnlsGrouping_02_Trt_3",
          "condition": {
            "dataset": "ADSL",
            "variable": "TRT01A",
            "comparator": "EQ",
            "value": [
              "Xanomeline High Dose"
            ]
          },
          "order": 3,
          "label": "Xanomeline High Dose"
        }
      ]
    },
    {
      "id": "AnlsGrouping_03_AgeGp",
      "dataDriven": false,
      "label": "Age Group",
      "groupingVariable": "AGEGR1",
      "groups": [
        {
          "id": "AnlsGrouping_03_AgeGp_1",
          "condition": {
            "dataset": "ADSL",
            "variable": "AGEGR1",
            "comparator": "EQ",
            "value": [
              "<65"
            ]
          },
          "order": 1,
          "label": "< 65 years"
        },
        {
          "id": "AnlsGrouping_03_AgeGp_2",
          "condition": {
            "dataset": "ADSL",
            "variable": "AGEGR1",
            "comparator": "IN",
            "value": [
              "65-80",
              ">80"
            ]
          },
          "order": 2,
          "label": "≥ 65 years"
        }
      ]
    },
    {
      "id": "AnlsGrouping_04_Race",
      "dataDriven": false,
      "label": "Primary Race",
      "groupingVariable": "RACE",
      "groups": [
        {
          "id": "AnlsGrouping_04_Race_1",
          "condition": {
            "dataset": "ADSL",
            "variable": "RACE",
            "comparator": "EQ",
            "value": [
              "AMERICAN INDIAN OR ALASKA NATIVE"
            ]
          },
          "order": 1,
          "label": "American Indian or Alaska Native"
        },
        {
          "id": "AnlsGrouping_04_Race_2",
          "condition": {
            "dataset": "ADSL",
            "variable": "RACE",
            "comparator": "EQ",
            "value": [
              "ASIAN"
            ]
          },
          "order": 2,
          "label": "Asian"
        },
        {
          "id": "AnlsGrouping_04_Race_3",
          "condition": {
            "dataset": "ADSL",
            "variable": "RACE",
            "comparator": "EQ",
            "value": [
              "BLACK OR AFRICAN AMERICAN"
            ]
          },
          "order": 3,
          "label": "Black or African American"
        },
        {
          "id": "AnlsGrouping_04_Race_4",
          "condition": {
            "dataset": "ADSL",
            "variable": "RACE",
            "comparator": "EQ",
            "value": [
              "NATIVE HAWAIIAN OR OTHER PACIFIC ISLANDER"
            ]
          },
          "order": 4,
          "label": "Native Hawaiian or Other Pacific Islander"
        },
        {
          "id": "AnlsGrouping_04_Race_5",
          "condition": {
            "dataset": "ADSL",
            "variable": "RACE",
            "comparator": "EQ",
            "value": [
              "WHITE"
            ]
          },
          "order": 5,
          "label": "White"
        },
        {
          "id": "AnlsGrouping_04_Race_6",
          "condition": {
            "dataset": "ADSL",
            "variable": "RACE",
            "comparator": "EQ",
            "value": [
              "MULTIPLE"
            ]
          },
          "order": 6,
          "label": "Multiple"
        },
        {
          "id": "AnlsGrouping_04_Race_7",
          "condition": {
            "dataset": "ADSL",
            "variable": "RACE",
            "comparator": "EQ",
            "value": [
              "NOT REPORTED"
            ]
          },
          "order": 7,
          "label": "Not Reported"
        },
        {
          "id": "AnlsGrouping_04_Race_8",
          "condition": {
            "dataset": "ADSL",
            "variable": "RACE",
            "comparator": "EQ",
            "value": [
              "UNKNOWN"
            ]
          },
          "order": 8,
          "label": "Unknown"
        },
        {
          "id": "AnlsGrouping_04_Race_9",
          "condition": {
            "dataset": "ADSL",
            "variable": "RACE",
            "comparator": "EQ",
            "value": [
              "OTHER"
            ]
          },
          "order": 9,
          "label": "Other"
        }
      ]
    },
    {
      "id": "AnlsGrouping_05_Ethnic",
      "dataDriven": false,
      "label": "Ethnicity",
      "groupingVariable": "ETHNIC",
      "groups": [
        {
          "id": "AnlsGrouping_05_Ethnic_1",
          "condition": {
            "dataset": "ADSL",
            "variable": "ETHNIC",
            "comparator": "EQ",
            "value": [
              "HISPANIC OR LATINO"
            ]
          },
          "order": 1,
          "label": "Hispanic or Latino"
        },
        {
          "id": "AnlsGrouping_05_Ethnic_2",
          "condition": {
            "dataset": "ADSL",
            "variable": "ETHNIC",
            "comparator": "EQ",
            "value": [
              "NOT HISPANIC OR LATINO"
            ]
          },
          "order": 2,
          "label": "Not Hispanic or Latino"
        }
      ]
    }
  ],
  "dataSubsets": [
    {
      "id": "Dss01_TrtEm",
      "condition": {
        "dataset": "ADAE",
        "variable": "TRTEMFL",
        "comparator": "EQ",
        "value": [
          "Y"
        ]
      },
      "label": "Treatment-Emergent Adverse Events"
    }
  ],
  "analyses": [
    {
      "id": "An01.5_SAF_ByTrt",
      "version": 1,
      "analysisSetId": "AnalysisSet_02_SAF",
      "orderedGroupings": [
        {
          "order": 1,
          "groupingId": "AnlsGrouping_02_Trt"
        }
      ],
      "dataset": "ADSL",
      "variable": "USUBJID",
      "methodId": "Mth01_CatVar_ByGrp",
      "results": [
        {
          "operationId": "Mth01_CatVar_ByGrp_n",
          "resultGroups": [
            {
              "groupingId": "AnlsGrouping_02_Trt",
              "groupId": "AnlsGrouping_02_Trt_1"
            }
          ],
          "rawValue": "86",
          "formattedValue": "(N=86)"
        },
        {
          "operationId": "Mth01_CatVar_ByGrp_n",
          "resultGroups": [
            {
              "groupingId": "AnlsGrouping_02_Trt",
              "groupId": "AnlsGrouping_02_Trt_2"
            }
          ],
          "rawValue": "84",
          "formattedValue": "(N=84)"
        },
        {
          "operationId": "Mth01_CatVar_ByGrp_n",
          "resultGroups": [
            {
              "groupingId": "AnlsGrouping_02_Trt",
              "groupId": "AnlsGrouping_02_Trt_3"
            }
          ],
          "rawValue": "84",
          "formattedValue": "(N=84)"
        }
      ]
    },
    {
      "id": "An03.1_Age_ByTrt",
      "version": 1,
      "analysisSetId": "AnalysisSet_02_SAF",
      "orderedGroupings": [
        {
          "order": 1,
          "groupingId": "AnlsGrouping_02_Trt"
        }
      ],
      "dataset": "ADSL",
      "variable": "AGE",
      "methodId": "Mth02_ContVar_ByGrp",
      "results": [
        {
          "operationId": "Mth02_ContVar_ByGrp_n",
          "resultGroups": [
            {
              "groupingId": "AnlsGrouping_02_Trt",
              "groupId": "AnlsGrouping_02_Trt_1"
            }
          ],
          "rawValue": "86",
          "formattedValue": "86"
        },
        {
          "operationId": "Mth02_ContVar_ByGrp_n",
          "resultGroups": [
            {
              "groupingId": "AnlsGrouping_02_Trt",
              "groupId": "AnlsGrouping_02_Trt_2"
            }
          ],
          "rawValue": "84",
          "formattedValue": "84"
        },
        {
          "operationId": "Mth02_ContVar_ByGrp_n",
          "resultGroups": [
            {
              "groupingId": "AnlsGrouping_02_Trt",
              "groupId": "AnlsGrouping_02_Trt_3"
            }
          ],
          "rawValue": "84",
          "formattedValue": "84"
        },
        {
          "operationId": "Mth02_ContVar_ByGrp_Mean",
          "resultGroups": [
            {
              "groupingId": "AnlsGrouping_02_Trt",
              "groupId": "AnlsGrouping_02_Trt_1"
            }
          ],
          "rawValue": "75.2093023",
          "formattedValue": "75.2"
        },
        {
          "operationId": "Mth02_ContVar_ByGrp_Mean",
          "resultGroups": [
            {
              "groupingId": "AnlsGrouping_02_Trt",
              "groupId": "AnlsGrouping_02_Trt_2"
            }
          ],
          "rawValue": "75.6666667",
          "formattedValue": "75.7"
        },
        {
          "operationId": "Mth02_ContVar_ByGrp_Mean",
          "resultGroups": [
            {
              "groupingId": "AnlsGrouping_02_Trt",
              "groupId": "AnlsGrouping_02_Trt_3"
            }
          ],
          "rawValue": "74.3809524",
          "formattedValue": "74.4"
        },
        {
          "operationId": "Mth02_ContVar_ByGrp_SD",
          "resultGroups": [
            {
              "groupingId": "AnlsGrouping_02_Trt",
              "groupId": "AnlsGrouping_02_Trt_1"
            }
          ],
          "rawValue": "8.5901671",
          "formattedValue": "( 8.59)"
        },
        {
          "operationId": "Mth02_ContVar_ByGrp_SD",
          "resultGroups": [
            {
              "groupingId": "AnlsGrouping_02_Trt",
              "groupId": "AnlsGrouping_02_Trt_2"
            }
          ],
          "rawValue": "8.2860506",
          "formattedValue": "( 8.29)"
        },
        {
          "operationId": "Mth02_ContVar_ByGrp_SD",
          "resultGroups": [
            {
              "groupingId": "AnlsGrouping_02_Trt",
              "groupId": "AnlsGrouping_02_Trt_3"
            }
          ],
          "rawValue": "7.8860938",
          "formattedValue": "( 7.89)"
        },
        {
          "operationId": "Mth02_ContVar_ByGrp_Median",
          "resultGroups": [
            {
              "groupingId": "AnlsGrouping_02_Trt",
              "groupId": "AnlsGrouping_02_Trt_1"
            }
          ],
          "rawValue": "76",
          "formattedValue": "76.0"
        },
        {
          "operationId": "Mth02_ContVar_ByGrp_Median",
          "resultGroups": [
            {
              "groupingId": "AnlsGrouping_02_Trt",
              "groupId": "AnlsGrouping_02_Trt_2"
            }
          ],
          "rawValue": "77.5",
          "formattedValue": "77.5"
        },
        {
          "operationId": "Mth02_ContVar_ByGrp_Median",
          "resultGroups": [
            {
              "groupingId": "AnlsGrouping_02_Trt",
              "groupId": "AnlsGrouping_02_Trt_3"
            }
          ],
          "rawValue": "76",
          "formattedValue": "76.0"
        },
        {
          "operationId": "Mth02_ContVar_ByGrp_Q1",
          "resultGroups": [
            {
              "groupingId": "AnlsGrouping_02_Trt",
              "groupId": "AnlsGrouping_02_Trt_1"
            }
          ],
          "rawValue": "69",
          "formattedValue": "69.0"
        },
        {
          "operationId": "Mth02_ContVar_ByGrp_Q1",
          "resultGroups": [
            {
              "groupingId": "AnlsGrouping_02_Trt",
              "groupId": "AnlsGrouping_02_Trt_2"
            }
          ],
          "rawValue": "71",
          "formattedValue": "71.0"
        },
        {
          "operationId": "Mth02_ContVar_ByGrp_Q1",
          "resultGroups": [
            {
              "groupingId": "AnlsGrouping_02_Trt",
              "groupId": "AnlsGrouping_02_Trt_3"
            }
          ],
          "rawValue": "70",
          "formattedValue": "70.0"
        },
        {
          "operationId": "Mth02_ContVar_ByGrp_Q3",
          "resultGroups": [
            {
              "groupingId": "AnlsGrouping_02_Trt",
              "groupId": "AnlsGrouping_02_Trt_1"
            }
          ],
          "rawValue": "82",
          "formattedValue": "82.0"
        },
        {
          "operationId": "Mth02_ContVar_ByGrp_Q3",
          "resultGroups": [
            {
              "groupingId": "AnlsGrouping_02_Trt",
              "groupId": "AnlsGrouping_02_Trt_2"
            }
          ],
          "rawValue": "82",
          "formattedValue": "82.0"
        },
        {
          "operationId": "Mth02_ContVar_ByGrp_Q3",
          "resultGroups": [
            {
              "groupingId": "AnlsGrouping_02_Trt",
              "groupId": "AnlsGrouping_02_Trt_3"
            }
          ],
          "rawValue": "80",
          "formattedValue": "80.0"
        },
        {
          "operationId": "Mth02_ContVar_ByGrp_Min",
          "resultGroups": [
            {
              "groupingId": "AnlsGrouping_02_Trt",
              "groupId": "AnlsGrouping_02_Trt_1"
            }
          ],
          "rawValue": "52",
          "formattedValue": "52"
        },
        {
          "operationId": "Mth02_ContVar_ByGrp_Min",
          "resultGroups": [
            {
              "groupingId": "AnlsGrouping_02_Trt",
              "groupId": "AnlsGrouping_02_Trt_2"
            }
          ],
          "rawValue": "51",
          "formattedValue": "51"
        },
        {
          "operationId": "Mth02_ContVar_ByGrp_Min",
          "resultGroups": [
            {
              "groupingId": "AnlsGrouping_02_Trt",
              "groupId": "AnlsGrouping_02_Trt_3"
            }
          ],
          "rawValue": "56",
          "formattedValue": "56"
        },
        {
          "operationId": "Mth02_ContVar_ByGrp_Max",
          "resultGroups": [
            {
              "groupingId": "AnlsGrouping_02_Trt",
              "groupId": "AnlsGrouping_02_Trt_1"
            }
          ],
          "rawValue": "89",
          "formattedValue": "89"
        },
        {
          "operationId": "Mth02_ContVar_ByGrp_Max",
          "resultGroups": [
            {
              "groupingId": "AnlsGrouping_02_Trt",
              "groupId": "AnlsGrouping_02_Trt_2"
            }
          ],
          "rawValue": "88",
          "formattedValue": "88"
        },
        {
          "operationId": "Mth02_ContVar_ByGrp_Max",
          "resultGroups": [
            {
              "groupingId": "AnlsGrouping_02_Trt",
              "groupId": "AnlsGrouping_02_Trt_3"
            }
          ],
          "rawValue": "88",
          "formattedValue": "88"
        }
      ]
    },
    {
      "id": "An03.2_AgeGrp_ByTrt",
      "version": 1,
      "analysisSetId": "AnalysisSet_02_SAF",
      "orderedGroupings": [
        {
          "order": 1,
          "groupingId": "AnlsGrouping_02_Trt"
        },
        {
          "order": 2,
          "groupingId": "AnlsGrouping_03_AgeGp"
        }
      ],
      "dataset": "ADSL",
      "variable": "AGEGR1",
      "methodId": "Mth01_CatVar_ByGrp",
      "referencedAnalysisOperations": [
        {
          "analysisId": "An03.2_AgeGrp_ByTrt",
          "referencedOperationId": "Mth01_CatVar_ByGrp_pct_NUM"
        },
        {
          "analysisId": "An01.5_SAF_ByTrt",
          "referencedOperationId": "Mth01_CatVar_ByGrp_pct_DEN"
        }
      ],
      "results": [
        {
          "operationId": "Mth01_CatVar_ByGrp_n",
          "resultGroups": [
            {
              "groupingId": "AnlsGrouping_02_Trt",
              "groupId": "AnlsGrouping_02_Trt_1"
            },
            {
              "groupingId": "AnlsGrouping_03_AgeGp",
              "groupId": "AnlsGrouping_03_AgeGp_1"
            }
          ],
          "rawValue": "14",
          "formattedValue": "14"
        },
        {
          "operationId": "Mth01_CatVar_ByGrp_n",
          "resultGroups": [
            {
              "groupingId": "AnlsGrouping_02_Trt",
              "groupId": "AnlsGrouping_02_Trt_1"
            },
            {
              "groupingId": "AnlsGrouping_03_AgeGp",
              "groupId": "AnlsGrouping_03_AgeGp_2"
            }
          ],
          "rawValue": "72",
          "formattedValue": "72"
        },
        {
          "operationId": "Mth01_CatVar_ByGrp_n",
          "resultGroups": [
            {
              "groupingId": "AnlsGrouping_02_Trt",
              "groupId": "AnlsGrouping_02_Trt_2"
            },
            {
              "groupingId": "AnlsGrouping_03_AgeGp",
              "groupId": "AnlsGrouping_03_AgeGp_1"
            }
          ],
          "rawValue": "8",
          "formattedValue": "8"
        },
        {
          "operationId": "Mth01_CatVar_ByGrp_n",
          "resultGroups": [
            {
              "groupingId": "AnlsGrouping_02_Trt",
              "groupId": "AnlsGrouping_02_Trt_2"
            },
            {
              "groupingId": "AnlsGrouping_03_AgeGp",
              "groupId": "AnlsGrouping_03_AgeGp_2"
            }
          ],
          "rawValue": "76",
          "formattedValue": "76"
        },
        {
          "operationId": "Mth01_CatVar_ByGrp_n",
          "resultGroups": [
            {
              "groupingId": "AnlsGrouping_02_Trt",
              "groupId": "AnlsGrouping_02_Trt_3"
            },
            {
              "groupingId": "AnlsGrouping_03_AgeGp",
              "groupId": "AnlsGrouping_03_AgeGp_1"
            }
          ],
          "rawValue": "11",
          "formattedValue": "11"
        },
        {
          "operationId": "Mth01_CatVar_ByGrp_n",
          "resultGroups": [
            {
              "groupingId": "AnlsGrouping_02_Trt",
              "groupId": "AnlsGrouping_02_Trt_3"
            },
            {
              "groupingId": "AnlsGrouping_03_AgeGp",
              "groupId": "AnlsGrouping_03_AgeGp_2"
            }
          ],
          "rawValue": "73",
          "formattedValue": "73"
        },
        {
          "operationId": "Mth01_CatVar_ByGrp_pct",
          "resultGroups": [
            {
              "groupingId": "AnlsGrouping_02_Trt",
              "groupId": "AnlsGrouping_02_Trt_1"
            },
            {
              "groupingId": "AnlsGrouping_03_AgeGp",
              "groupId": "AnlsGrouping_03_AgeGp_1"
            }
          ],
          "rawValue": "16.27906976744186",
          "formattedValue": "( 16.3)"
        },
        {
          "operationId": "Mth01_CatVar_ByGrp_pct",
          "resultGroups": [
            {
              "groupingId": "AnlsGrouping_02_Trt",
              "groupId": "AnlsGrouping_02_Trt_1"
            },
            {
              "groupingId": "AnlsGrouping_03_AgeGp",
              "groupId": "AnlsGrouping_03_AgeGp_2"
            }
          ],
          "rawValue": "83.72093023255815",
          "formattedValue": "( 83.7)"
        },
        {
          "operationId": "Mth01_CatVar_ByGrp_pct",
          "resultGroups": [
            {
              "groupingId": "AnlsGrouping_02_Trt",
              "groupId": "AnlsGrouping_02_Trt_2"
            },
            {
              "groupingId": "AnlsGrouping_03_AgeGp",
              "groupId": "AnlsGrouping_03_AgeGp_1"
            }
          ],
          "rawValue": "9.523809523809524",
          "formattedValue": "(  9.5)"
        },
        {
          "operationId": "Mth01_CatVar_ByGrp_pct",
          "resultGroups": [
            {
              "groupingId": "AnlsGrouping_02_Trt",
              "groupId": "AnlsGrouping_02_Trt_2"
            },
            {
              "groupingId": "AnlsGrouping_03_AgeGp",
              "groupId": "AnlsGrouping_03_AgeGp_2"
            }
          ],
          "rawValue": "90.47619047619048",
          "formattedValue": "( 90.5)"
        },
        {
          "operationId": "Mth01_CatVar_ByGrp_pct",
          "resultGroups": [
            {
              "groupingId": "AnlsGrouping_02_Trt",
              "groupId": "AnlsGrouping_02_Trt_3"
            },
            {
              "groupingId": "AnlsGrouping_03_AgeGp",
              "groupId": "AnlsGrouping_03_AgeGp_1"
            }
          ],
          "rawValue": "13.095238095238095",
          "formattedValue": "( 13.1)"
        },
        {
          "operationId": "Mth01_CatVar_ByGrp_pct",
          "resultGroups": [
            {
              "groupingId": "AnlsGrouping_02_Trt",
              "groupId": "AnlsGrouping_02_Trt_3"
            },
            {
              "groupingId": "AnlsGrouping_03_AgeGp",
              "groupId": "AnlsGrouping_03_AgeGp_2"
            }
          ],
          "rawValue": "86.9047619047619",
          "formattedValue": "( 86.9)"
        }
      ]
    },
    {
      "id": "An03.3_Sex_ByTrt",
      "version": 1,
      "analysisSetId": "AnalysisSet_02_SAF",
      "orderedGroupings": [
        {
          "order": 1,
          "groupingId": "AnlsGrouping_02_Trt"
        },
        {
          "order": 2,
          "groupingId": "AnlsGrouping_01_Sex"
        }
      ],
      "dataset": "ADSL",
      "variable": "SEX",
      "methodId": "Mth01_CatVar_ByGrp",
      "referencedAnalysisOperations": [
        {
          "analysisId": "An03.3_Sex_ByTrt",
          "referencedOperationId": "Mth01_CatVar_ByGrp_pct_NUM"
        },
        {
          "analysisId": "An01.5_SAF_ByTrt",
          "referencedOperationId": "Mth01_CatVar_ByGrp_pct_DEN"
        }
      ],
      "results": [
        {
          "operationId": "Mth01_CatVar_ByGrp_n",
          "resultGroups": [
            {
              "groupingId": "AnlsGrouping_02_Trt",
              "groupId": "AnlsGrouping_02_Trt_1"
            },
            {
              "groupingId": "AnlsGrouping_01_Sex",
              "groupId": "AnlsGrouping_01_Sex_1"
            }
          ],
          "rawValue": "33",
          "formattedValue": "33"
        },
        {
          "operationId": "Mth01_CatVar_ByGrp_n",
          "resultGroups": [
            {
              "groupingId": "AnlsGrouping_02_Trt",
              "groupId": "AnlsGrouping_02_Trt_1"
            },
            {
              "groupingId": "AnlsGrouping_01_Sex",
              "groupId": "AnlsGrouping_01_Sex_2"
            }
          ],
          "rawValue": "53",
          "formattedValue": "53"
        },
        {
          "operationId": "Mth01_CatVar_ByGrp_n",
          "resultGroups": [
            {
              "groupingId": "AnlsGrouping_02_Trt",
              "groupId": "AnlsGrouping_02_Trt_2"
            },
            {
              "groupingId": "AnlsGrouping_01_Sex",
              "groupId": "AnlsGrouping_01_Sex_1"
            }
          ],
          "rawValue": "34",
          "formattedValue": "34"
        },
        {
          "operationId": "Mth01_CatVar_ByGrp_n",
          "resultGroups": [
            {
              "groupingId": "AnlsGrouping_02_Trt",
              "groupId": "AnlsGrouping_02_Trt_2"
            },
            {
              "groupingId": "AnlsGrouping_01_Sex",
              "groupId": "AnlsGrouping_01_Sex_2"
            }
          ],
          "rawValue": "50",
          "formattedValue": "50"
        },
        {
          "operationId": "Mth01_CatVar_ByGrp_n",
          "resultGroups": [
            {
              "groupingId": "AnlsGrouping_02_Trt",
              "groupId": "AnlsGrouping_02_Trt_3"
            },
            {
              "groupingId": "AnlsGrouping_01_Sex",
              "groupId": "AnlsGrouping_01_Sex_1"
            }
          ],
          "rawValue": "44",
          "formattedValue": "44"
        },
        {
          "operationId": "Mth01_CatVar_ByGrp_n",
          "resultGroups": [
            {
              "groupingId": "AnlsGrouping_02_Trt",
              "groupId": "AnlsGrouping_02_Trt_3"
            },
            {
              "groupingId": "AnlsGrouping_01_Sex",
              "groupId": "AnlsGrouping_01_Sex_2"
            }
          ],
          "rawValue": "40",
          "formattedValue": "40"
        },
        {
          "operationId": "Mth01_CatVar_ByGrp_pct",
          "resultGroups": [
            {
              "groupingId": "AnlsGrouping_02_Trt",
              "groupId": "AnlsGrouping_02_Trt_1"
            },
            {
              "groupingId": "AnlsGrouping_01_Sex",
              "groupId": "AnlsGrouping_01_Sex_1"
            }
          ],
          "rawValue": "38.372093023255815",
          "formattedValue": "( 38.4)"
        },
        {
          "operationId": "Mth01_CatVar_ByGrp_pct",
          "resultGroups": [
            {
              "groupingId": "AnlsGrouping_02_Trt",
              "groupId": "AnlsGrouping_02_Trt_1"
            },
            {
              "groupingId": "AnlsGrouping_01_Sex",
              "groupId": "AnlsGrouping_01_Sex_2"
            }
          ],
          "rawValue": "61.627906976744185",
          "formattedValue": "( 61.6)"
        },
        {
          "operationId": "Mth01_CatVar_ByGrp_pct",
          "resultGroups": [
            {
              "groupingId": "AnlsGrouping_02_Trt",
              "groupId": "AnlsGrouping_02_Trt_2"
            },
            {
              "groupingId": "AnlsGrouping_01_Sex",
              "groupId": "AnlsGrouping_01_Sex_1"
            }
          ],
          "rawValue": "40.476190476190474",
          "formattedValue": "( 40.5)"
        },
        {
          "operationId": "Mth01_CatVar_ByGrp_pct",
          "resultGroups": [
            {
              "groupingId": "AnlsGrouping_02_Trt",
              "groupId": "AnlsGrouping_02_Trt_2"
            },
            {
              "groupingId": "AnlsGrouping_01_Sex",
              "groupId": "AnlsGrouping_01_Sex_2"
            }
          ],
          "rawValue": "59.523809523809526",
          "formattedValue": "( 59.5)"
        },
        {
          "operationId": "Mth01_CatVar_ByGrp_pct",
          "resultGroups": [
            {
              "groupingId": "AnlsGrouping_02_Trt",
              "groupId": "AnlsGrouping_02_Trt_3"
            },
            {
              "groupingId": "AnlsGrouping_01_Sex",
              "groupId": "AnlsGrouping_01_Sex_1"
            }
          ],
          "rawValue": "52.38095238095238",
          "formattedValue": "( 52.4)"
        },
        {
          "operationId": "Mth01_CatVar_ByGrp_pct",
          "resultGroups": [
            {
              "groupingId": "AnlsGrouping_02_Trt",
              "groupId": "AnlsGrouping_02_Trt_3"
            },
            {
              "groupingId": "AnlsGrouping_01_Sex",
              "groupId": "AnlsGrouping_01_Sex_2"
            }
          ],
          "rawValue": "47.61904761904762",
          "formattedValue": "( 47.6)"
        }
      ]
    },
    {
      "id": "An03.4_Ethnic_ByTrt",
      "version": 1,
      "analysisSetId": "AnalysisSet_02_SAF",
      "orderedGroupings": [
        {
          "order": 1,
          "groupingId": "AnlsGrouping_02_Trt"
        },
        {
          "order": 2,
          "groupingId": "AnlsGrouping_05_Ethnic"
        }
      ],
      "dataset": "ADSL",
      "variable": "ETHNIC",
      "methodId": "Mth01_CatVar_ByGrp",
      "referencedAnalysisOperations": [
        {
          "analysisId": "An03.4_Ethnic_ByTrt",
          "referencedOperationId": "Mth01_CatVar_ByGrp_pct_NUM"
        },
        {
          "analysisId": "An01.5_SAF_ByTrt",
          "referencedOperationId": "Mth01_CatVar_ByGrp_pct_DEN"
        }
      ],
      "results": [
        {
          "operationId": "Mth01_CatVar_ByGrp_n",
          "resultGroups": [
            {
              "groupingId": "AnlsGrouping_02_Trt",
              "groupId": "AnlsGrouping_02_Trt_1"
            },
            {
              "groupingId": "AnlsGrouping_05_Ethnic",
              "groupId": "AnlsGrouping_05_Ethnic_1"
            }
          ],
          "rawValue": "3",
          "formattedValue": "3"
        },
        {
          "operationId": "Mth01_CatVar_ByGrp_n",
          "resultGroups": [
            {
              "groupingId": "AnlsGrouping_02_Trt",
              "groupId": "AnlsGrouping_02_Trt_1"
            },
            {
              "groupingId": "AnlsGrouping_05_Ethnic",
              "groupId": "AnlsGrouping_05_Ethnic_2"
            }
          ],
          "rawValue": "83",
          "formattedValue": "83"
        },
        {
          "operationId": "Mth01_CatVar_ByGrp_n",
          "resultGroups": [
            {
              "groupingId": "AnlsGrouping_02_Trt",
              "groupId": "AnlsGrouping_02_Trt_2"
            },
            {
              "groupingId": "AnlsGrouping_05_Ethnic",
              "groupId": "AnlsGrouping_05_Ethnic_1"
            }
          ],
          "rawValue": "3",
          "formattedValue": "3"
        },
        {
          "operationId": "Mth01_CatVar_ByGrp_n",
          "resultGroups": [
            {
              "groupingId": "AnlsGrouping_02_Trt",
              "groupId": "AnlsGrouping_02_Trt_2"
            },
            {
              "groupingId": "AnlsGrouping_05_Ethnic",
              "groupId": "AnlsGrouping_05_Ethnic_2"
            }
          ],
          "rawValue": "81",
          "formattedValue": "81"
        },
        {
          "operationId": "Mth01_CatVar_ByGrp_n",
          "resultGroups": [
            {
              "groupingId": "AnlsGrouping_02_Trt",
              "groupId": "AnlsGrouping_02_Trt_3"
            },
            {
              "groupingId": "AnlsGrouping_05_Ethnic",
              "groupId": "AnlsGrouping_05_Ethnic_1"
            }
          ],
          "rawValue": "6",
          "formattedValue": "6"
        },
        {
          "operationId": "Mth01_CatVar_ByGrp_n",
          "resultGroups": [
            {
              "groupingId": "AnlsGrouping_02_Trt",
              "groupId": "AnlsGrouping_02_Trt_3"
            },
            {
              "groupingId": "AnlsGrouping_05_Ethnic",
              "groupId": "AnlsGrouping_05_Ethnic_2"
            }
          ],
          "rawValue": "78",
          "formattedValue": "78"
        },
        {
          "operationId": "Mth01_CatVar_ByGrp_pct",
          "resultGroups": [
            {
              "groupingId": "AnlsGrouping_02_Trt",
              "groupId": "AnlsGrouping_02_Trt_1"
            },
            {
              "groupingId": "AnlsGrouping_05_Ethnic",
              "groupId": "AnlsGrouping_05_Ethnic_1"
            }
          ],
          "rawValue": "3.488372093023256",
          "formattedValue": "(  3.5)"
        },
        {
          "operationId": "Mth01_CatVar_ByGrp_pct",
          "resultGroups": [
            {
              "groupingId": "AnlsGrouping_02_Trt",
              "groupId": "AnlsGrouping_02_Trt_1"
            },
            {
              "groupingId": "AnlsGrouping_05_Ethnic",
              "groupId": "AnlsGrouping_05_Ethnic_2"
            }
          ],
          "rawValue": "96.51162790697674",
          "formattedValue": "( 96.5)"
        },
        {
          "operationId": "Mth01_CatVar_ByGrp_pct",
          "resultGroups": [
            {
              "groupingId": "AnlsGrouping_02_Trt",
              "groupId": "AnlsGrouping_02_Trt_2"
            },
            {
              "groupingId": "AnlsGrouping_05_Ethnic",
              "groupId": "AnlsGrouping_05_Ethnic_1"
            }
          ],
          "rawValue": "3.5714285714285716",
          "formattedValue": "(  3.6)"
        },
        {
          "operationId": "Mth01_CatVar_ByGrp_pct",
          "resultGroups": [
            {
              "groupingId": "AnlsGrouping_02_Trt",
              "groupId": "AnlsGrouping_02_Trt_2"
            },
            {
              "groupingId": "AnlsGrouping_05_Ethnic",
              "groupId": "AnlsGrouping_05_Ethnic_2"
            }
          ],
          "rawValue": "96.42857142857143",
          "formattedValue": "( 96.4)"
        },
        {
          "operationId": "Mth01_CatVar_ByGrp_pct",
          "resultGroups": [
            {
              "groupingId": "AnlsGrouping_02_Trt",
              "groupId": "AnlsGrouping_02_Trt_3"
            },
            {
              "groupingId": "AnlsGrouping_05_Ethnic",
              "groupId": "AnlsGrouping_05_Ethnic_1"
            }
          ],
          "rawValue": "7.142857142857143",
          "formattedValue": "(  7.1)"
        },
        {
          "operationId": "Mth01_CatVar_ByGrp_pct",
          "resultGroups": [
            {
              "groupingId": "AnlsGrouping_02_Trt",
              "groupId": "AnlsGrouping_02_Trt_3"
            },
            {
              "groupingId": "AnlsGrouping_05_Ethnic",
              "groupId": "AnlsGrouping_05_Ethnic_2"
            }
          ],
          "rawValue": "92.85714285714286",
          "formattedValue": "( 92.9)"
        }
      ]
    },
    {
      "id": "An03.5_Race_ByTrt",
      "version": 1,
      "analysisSetId": "AnalysisSet_02_SAF",
      "orderedGroupings": [
        {
          "order": 1,
          "groupingId": "AnlsGrouping_02_Trt"
        },
        {
          "order": 2,
          "groupingId": "AnlsGrouping_04_Race"
        }
      ],
      "dataset": "ADSL",
      "variable": "RACE",
      "methodId": "Mth01_CatVar_ByGrp",
      "referencedAnalysisOperations": [
        {
          "analysisId": "An03.5_Race_ByTrt",
          "referencedOperationId": "Mth01_CatVar_ByGrp_pct_NUM"
        },
        {
          "analysisId": "An01.5_SAF_ByTrt",
          "referencedOperationId": "Mth01_CatVar_ByGrp_pct_DEN"
        }
      ],
      "results": [
        {
          "operationId": "Mth01_CatVar_ByGrp_n",
          "resultGroups": [
            {
              "groupingId": "AnlsGrouping_02_Trt",
              "groupId": "AnlsGrouping_02_Trt_1"
            },
            {
              "groupingId": "AnlsGrouping_04_Race",
              "groupId": "AnlsGrouping_04_Race_1"
            }
          ],
          "rawValue": "0",
          "formattedValue": "0"
        },
        {
          "operationId": "Mth01_CatVar_ByGrp_n",
          "resultGroups": [
            {
              "groupingId": "AnlsGrouping_02_Trt",
              "groupId": "AnlsGrouping_02_Trt_1"
            },
            {
              "groupingId": "AnlsGrouping_04_Race",
              "groupId": "AnlsGrouping_04_Race_2"
            }
          ],
          "rawValue": "0",
          "formattedValue": "0"
        },
        {
          "operationId": "Mth01_CatVar_ByGrp_n",
          "resultGroups": [
            {
              "groupingId": "AnlsGrouping_02_Trt",
              "groupId": "AnlsGrouping_02_Trt_1"
            },
            {
              "groupingId": "AnlsGrouping_04_Race",
              "groupId": "AnlsGrouping_04_Race_3"
            }
          ],
          "rawValue": "8",
          "formattedValue": "8"
        },
        {
          "operationId": "Mth01_CatVar_ByGrp_n",
          "resultGroups": [
            {
              "groupingId": "AnlsGrouping_02_Trt",
              "groupId": "AnlsGrouping_02_Trt_1"
            },
            {
              "groupingId": "AnlsGrouping_04_Race",
              "groupId": "AnlsGrouping_04_Race_4"
            }
          ],
          "rawValue": "0",
          "formattedValue": "0"
        },
        {
          "operationId": "Mth01_CatVar_ByGrp_n",
          "resultGroups": [
            {
              "groupingId": "AnlsGrouping_02_Trt",
              "groupId": "AnlsGrouping_02_Trt_1"
            },
            {
              "groupingId": "AnlsGrouping_04_Race",
              "groupId": "AnlsGrouping_04_Race_5"
            }
          ],
          "rawValue": "78",
          "formattedValue": "78"
        },
        {
          "operationId": "Mth01_CatVar_ByGrp_n",
          "resultGroups": [
            {
              "groupingId": "AnlsGrouping_02_Trt",
              "groupId": "AnlsGrouping_02_Trt_1"
            },
            {
              "groupingId": "AnlsGrouping_04_Race",
              "groupId": "AnlsGrouping_04_Race_6"
            }
          ],
          "rawValue": "0",
          "formattedValue": "0"
        },
        {
          "operationId": "Mth01_CatVar_ByGrp_n",
          "resultGroups": [
            {
              "groupingId": "AnlsGrouping_02_Trt",
              "groupId": "AnlsGrouping_02_Trt_1"
            },
            {
              "groupingId": "AnlsGrouping_04_Race",
              "groupId": "AnlsGrouping_04_Race_7"
            }
          ],
          "rawValue": "0",
          "formattedValue": "0"
        },
        {
          "operationId": "Mth01_CatVar_ByGrp_n",
          "resultGroups": [
            {
              "groupingId": "AnlsGrouping_02_Trt",
              "groupId": "AnlsGrouping_02_Trt_1"
            },
            {
              "groupingId": "AnlsGrouping_04_Race",
              "groupId": "AnlsGrouping_04_Race_8"
            }
          ],
          "rawValue": "0",
          "formattedValue": "0"
        },
        {
          "operationId": "Mth01_CatVar_ByGrp_n",
          "resultGroups": [
            {
              "groupingId": "AnlsGrouping_02_Trt",
              "groupId": "AnlsGrouping_02_Trt_1"
            },
            {
              "groupingId": "AnlsGrouping_04_Race",
              "groupId": "AnlsGrouping_04_Race_9"
            }
          ],
          "rawValue": "0",
          "formattedValue": "0"
        },
        {
          "operationId": "Mth01_CatVar_ByGrp_n",
          "resultGroups": [
            {
              "groupingId": "AnlsGrouping_02_Trt",
              "groupId": "AnlsGrouping_02_Trt_2"
            },
            {
              "groupingId": "AnlsGrouping_04_Race",
              "groupId": "AnlsGrouping_04_Race_1"
            }
          ],
          "rawValue": "1",
          "formattedValue": "1"
        },
        {
          "operationId": "Mth01_CatVar_ByGrp_n",
          "resultGroups": [
            {
              "groupingId": "AnlsGrouping_02_Trt",
              "groupId": "AnlsGrouping_02_Trt_2"
            },
            {
              "groupingId": "AnlsGrouping_04_Race",
              "groupId": "AnlsGrouping_04_Race_2"
            }
          ],
          "rawValue": "0",
          "formattedValue": "0"
        },
        {
          "operationId": "Mth01_CatVar_ByGrp_n",
          "resultGroups": [
            {
              "groupingId": "AnlsGrouping_02_Trt",
              "groupId": "AnlsGrouping_02_Trt_2"
            },
            {
              "groupingId": "AnlsGrouping_04_Race",
              "groupId": "AnlsGrouping_04_Race_3"
            }
          ],
          "rawValue": "9",
          "formattedValue": "9"
        },
        {
          "operationId": "Mth01_CatVar_ByGrp_n",
          "resultGroups": [
            {
              "groupingId": "AnlsGrouping_02_Trt",
              "groupId": "AnlsGrouping_02_Trt_2"
            },
            {
              "groupingId": "AnlsGrouping_04_Race",
              "groupId": "AnlsGrouping_04_Race_4"
            }
          ],
          "rawValue": "0",
          "formattedValue": "0"
        },
        {
          "operationId": "Mth01_CatVar_ByGrp_n",
          "resultGroups": [
            {
              "groupingId": "AnlsGrouping_02_Trt",
              "groupId": "AnlsGrouping_02_Trt_2"
            },
            {
              "groupingId": "AnlsGrouping_04_Race",
              "groupId": "AnlsGrouping_04_Race_5"
            }
          ],
          "rawValue": "74",
          "formattedValue": "74"
        },
        {
          "operationId": "Mth01_CatVar_ByGrp_n",
          "resultGroups": [
            {
              "groupingId": "AnlsGrouping_02_Trt",
              "groupId": "AnlsGrouping_02_Trt_2"
            },
            {
              "groupingId": "AnlsGrouping_04_Race",
              "groupId": "AnlsGrouping_04_Race_6"
            }
          ],
          "rawValue": "0",
          "formattedValue": "0"
        },
        {
          "operationId": "Mth01_CatVar_ByGrp_n",
          "resultGroups": [
            {
              "groupingId": "AnlsGrouping_02_Trt",
              "groupId": "AnlsGrouping_02_Trt_2"
            },
            {
              "groupingId": "AnlsGrouping_04_Race",
              "groupId": "AnlsGrouping_04_Race_7"
            }
          ],
          "rawValue": "0",
          "formattedValue": "0"
        },
        {
          "operationId": "Mth01_CatVar_ByGrp_n",
          "resultGroups": [
            {
              "groupingId": "AnlsGrouping_02_Trt",
              "groupId": "AnlsGrouping_02_Trt_2"
            },
            {
              "groupingId": "AnlsGrouping_04_Race",
              "groupId": "AnlsGrouping_04_Race_8"
            }
          ],
          "rawValue": "0",
          "formattedValue": "0"
        },
        {
          "operationId": "Mth01_CatVar_ByGrp_n",
          "resultGroups": [
            {
              "groupingId": "AnlsGrouping_02_Trt",
              "groupId": "AnlsGrouping_02_Trt_2"
            },
            {
              "groupingId": "AnlsGrouping_04_Race",
              "groupId": "AnlsGrouping_04_Race_9"
            }
          ],
          "rawValue": "0",
          "formattedValue": "0"
        },
        {
          "operationId": "Mth01_CatVar_ByGrp_n",
          "resultGroups": [
            {
              "groupingId": "AnlsGrouping_02_Trt",
              "groupId": "AnlsGrouping_02_Trt_3"
            },
            {
              "groupingId": "AnlsGrouping_04_Race",
              "groupId": "AnlsGrouping_04_Race_1"
            }
          ],
          "rawValue": "0",
          "formattedValue": "0"
        },
        {
          "operationId": "Mth01_CatVar_ByGrp_n",
          "resultGroups": [
            {
              "groupingId": "AnlsGrouping_02_Trt",
              "groupId": "AnlsGrouping_02_Trt_3"
            },
            {
              "groupingId": "AnlsGrouping_04_Race",
              "groupId": "AnlsGrouping_04_Race_2"
            }
          ],
          "rawValue": "0",
          "formattedValue": "0"
        },
        {
          "operationId": "Mth01_CatVar_ByGrp_n",
          "resultGroups": [
            {
              "groupingId": "AnlsGrouping_02_Trt",
              "groupId": "AnlsGrouping_02_Trt_3"
            },
            {
              "groupingId": "AnlsGrouping_04_Race",
              "groupId": "AnlsGrouping_04_Race_3"
            }
          ],
          "rawValue": "6",
          "formattedValue": "6"
        },
        {
          "operationId": "Mth01_CatVar_ByGrp_n",
          "resultGroups": [
            {
              "groupingId": "AnlsGrouping_02_Trt",
              "groupId": "AnlsGrouping_02_Trt_3"
            },
            {
              "groupingId": "AnlsGrouping_04_Race",
              "groupId": "AnlsGrouping_04_Race_4"
            }
          ],
          "rawValue": "0",
          "formattedValue": "0"
        },
        {
          "operationId": "Mth01_CatVar_ByGrp_n",
          "resultGroups": [
            {
              "groupingId": "AnlsGrouping_02_Trt",
              "groupId": "AnlsGrouping_02_Trt_3"
            },
            {
              "groupingId": "AnlsGrouping_04_Race",
              "groupId": "AnlsGrouping_04_Race_5"
            }
          ],
          "rawValue": "78",
          "formattedValue": "78"
        },
        {
          "operationId": "Mth01_CatVar_ByGrp_n",
          "resultGroups": [
            {
              "groupingId": "AnlsGrouping_02_Trt",
              "groupId": "AnlsGrouping_02_Trt_3"
            },
            {
              "groupingId": "AnlsGrouping_04_Race",
              "groupId": "AnlsGrouping_04_Race_6"
            }
          ],
          "rawValue": "0",
          "formattedValue": "0"
        },
        {
          "operationId": "Mth01_CatVar_ByGrp_n",
          "resultGroups": [
            {
              "groupingId": "AnlsGrouping_02_Trt",
              "groupId": "AnlsGrouping_02_Trt_3"
            },
            {
              "groupingId": "AnlsGrouping_04_Race",
              "groupId": "AnlsGrouping_04_Race_7"
            }
          ],
          "rawValue": "0",
          "formattedValue": "0"
        },
        {
          "operationId": "Mth01_CatVar_ByGrp_n",
          "resultGroups": [
            {
              "groupingId": "AnlsGrouping_02_Trt",
              "groupId": "AnlsGrouping_02_Trt_3"
            },
            {
              "groupingId": "AnlsGrouping_04_Race",
              "groupId": "AnlsGrouping_04_Race_8"
            }
          ],
          "rawValue": "0",
          "formattedValue": "0"
        },
        {
          "operationId": "Mth01_CatVar_ByGrp_n",
          "resultGroups": [
            {
              "groupingId": "AnlsGrouping_02_Trt",
              "groupId": "AnlsGrouping_02_Trt_3"
            },
            {
              "groupingId": "AnlsGrouping_04_Race",
              "groupId": "AnlsGrouping_04_Race_9"
            }
          ],
          "rawValue": "0",
          "formattedValue": "0"
        },
        {
          "operationId": "Mth01_CatVar_ByGrp_pct",
          "resultGroups": [
            {
              "groupingId": "AnlsGrouping_02_Trt",
              "groupId": "AnlsGrouping_02_Trt_1"
            },
            {
              "groupingId": "AnlsGrouping_04_Race",
              "groupId": "AnlsGrouping_04_Race_1"
            }
          ],
          "rawValue": "0",
          "formattedValue": "(  0.0)"
        },
        {
          "operationId": "Mth01_CatVar_ByGrp_pct",
          "resultGroups": [
            {
              "groupingId": "AnlsGrouping_02_Trt",
              "groupId": "AnlsGrouping_02_Trt_1"
            },
            {
              "groupingId": "AnlsGrouping_04_Race",
              "groupId": "AnlsGrouping_04_Race_2"
            }
          ],
          "rawValue": "0",
          "formattedValue": "(  0.0)"
        },
        {
          "operationId": "Mth01_CatVar_ByGrp_pct",
          "resultGroups": [
            {
              "groupingId": "AnlsGrouping_02_Trt",
              "groupId": "AnlsGrouping_02_Trt_1"
            },
            {
              "groupingId": "AnlsGrouping_04_Race",
              "groupId": "AnlsGrouping_04_Race_3"
            }
          ],
          "rawValue": "9.30232558139535",
          "formattedValue": "(  9.3)"
        },
        {
          "operationId": "Mth01_CatVar_ByGrp_pct",
          "resultGroups": [
            {
              "groupingId": "AnlsGrouping_02_Trt",
              "groupId": "AnlsGrouping_02_Trt_1"
            },
            {
              "groupingId": "AnlsGrouping_04_Race",
              "groupId": "AnlsGrouping_04_Race_4"
            }
          ],
          "rawValue": "0",
          "formattedValue": "(  0.0)"
        },
        {
          "operationId": "Mth01_CatVar_ByGrp_pct",
          "resultGroups": [
            {
              "groupingId": "AnlsGrouping_02_Trt",
              "groupId": "AnlsGrouping_02_Trt_1"
            },
            {
              "groupingId": "AnlsGrouping_04_Race",
              "groupId": "AnlsGrouping_04_Race_5"
            }
          ],
          "rawValue": "90.69767441860465",
          "formattedValue": "( 90.7)"
        },
        {
          "operationId": "Mth01_CatVar_ByGrp_pct",
          "resultGroups": [
            {
              "groupingId": "AnlsGrouping_02_Trt",
              "groupId": "AnlsGrouping_02_Trt_1"
            },
            {
              "groupingId": "AnlsGrouping_04_Race",
              "groupId": "AnlsGrouping_04_Race_6"
            }
          ],
          "rawValue": "0",
          "formattedValue": "(  0.0)"
        },
        {
          "operationId": "Mth01_CatVar_ByGrp_pct",
          "resultGroups": [
            {
              "groupingId": "AnlsGrouping_02_Trt",
              "groupId": "AnlsGrouping_02_Trt_1"
            },
            {
              "groupingId": "AnlsGrouping_04_Race",
              "groupId": "AnlsGrouping_04_Race_7"
            }
          ],
          "rawValue": "0",
          "formattedValue": "(  0.0)"
        },
        {
          "operationId": "Mth01_CatVar_ByGrp_pct",
          "resultGroups": [
            {
              "groupingId": "AnlsGrouping_02_Trt",
              "groupId": "AnlsGrouping_02_Trt_1"
            },
            {
              "groupingId": "AnlsGrouping_04_Race",
              "groupId": "AnlsGrouping_04_Race_8"
            }
          ],
          "rawValue": "0",
          "formattedValue": "(  0.0)"
        },
        {
          "operationId": "Mth01_CatVar_ByGrp_pct",
          "resultGroups": [
            {
              "groupingId": "AnlsGrouping_02_Trt",
              "groupId": "AnlsGrouping_02_Trt_1"
            },
            {
              "groupingId": "AnlsGrouping_04_Race",
              "groupId": "AnlsGrouping_04_Race_9"
            }
          ],
          "rawValue": "0",
          "formattedValue": "(  0.0)"
        },
        {
          "operationId": "Mth01_CatVar_ByGrp_pct",
          "resultGroups": [
            {
              "groupingId": "AnlsGrouping_02_Trt",
              "groupId": "AnlsGrouping_02_Trt_2"
            },
            {
              "groupingId": "AnlsGrouping_04_Race",
              "groupId": "AnlsGrouping_04_Race_1"
            }
          ],
          "rawValue": "1.1904761904761905",
          "formattedValue": "(  1.2)"
        },
        {
          "operationId": "Mth01_CatVar_ByGrp_pct",
          "resultGroups": [
            {
              "groupingId": "AnlsGrouping_02_Trt",
              "groupId": "AnlsGrouping_02_Trt_2"
            },
            {
              "groupingId": "AnlsGrouping_04_Race",
              "groupId": "AnlsGrouping_04_Race_2"
            }
          ],
          "rawValue": "0",
          "formattedValue": "(  0.0)"
        },
        {
          "operationId": "Mth01_CatVar_ByGrp_pct",
          "resultGroups": [
            {
              "groupingId": "AnlsGrouping_02_Trt",
              "groupId": "AnlsGrouping_02_Trt_2"
            },
            {
              "groupingId": "AnlsGrouping_04_Race",
              "groupId": "AnlsGrouping_04_Race_3"
            }
          ],
          "rawValue": "10.714285714285714",
          "formattedValue": "( 10.7)"
        },
        {
          "operationId": "Mth01_CatVar_ByGrp_pct",
          "resultGroups": [
            {
              "groupingId": "AnlsGrouping_02_Trt",
              "groupId": "AnlsGrouping_02_Trt_2"
            },
            {
              "groupingId": "AnlsGrouping_04_Race",
              "groupId": "AnlsGrouping_04_Race_4"
            }
          ],
          "rawValue": "0",
          "formattedValue": "(  0.0)"
        },
        {
          "operationId": "Mth01_CatVar_ByGrp_pct",
          "resultGroups": [
            {
              "groupingId": "AnlsGrouping_02_Trt",
              "groupId": "AnlsGrouping_02_Trt_2"
            },
            {
              "groupingId": "AnlsGrouping_04_Race",
              "groupId": "AnlsGrouping_04_Race_5"
            }
          ],
          "rawValue": "88.0952380952381",
          "formattedValue": "( 88.1)"
        },
        {
          "operationId": "Mth01_CatVar_ByGrp_pct",
          "resultGroups": [
            {
              "groupingId": "AnlsGrouping_02_Trt",
              "groupId": "AnlsGrouping_02_Trt_2"
            },
            {
              "groupingId": "AnlsGrouping_04_Race",
              "groupId": "AnlsGrouping_04_Race_6"
            }
          ],
          "rawValue": "0",
          "formattedValue": "(  0.0)"
        },
        {
          "operationId": "Mth01_CatVar_ByGrp_pct",
          "resultGroups": [
            {
              "groupingId": "AnlsGrouping_02_Trt",
              "groupId": "AnlsGrouping_02_Trt_2"
            },
            {
              "groupingId": "AnlsGrouping_04_Race",
              "groupId": "AnlsGrouping_04_Race_7"
            }
          ],
          "rawValue": "0",
          "formattedValue": "(  0.0)"
        },
        {
          "operationId": "Mth01_CatVar_ByGrp_pct",
          "resultGroups": [
            {
              "groupingId": "AnlsGrouping_02_Trt",
              "groupId": "AnlsGrouping_02_Trt_2"
            },
            {
              "groupingId": "AnlsGrouping_04_Race",
              "groupId": "AnlsGrouping_04_Race_8"
            }
          ],
          "rawValue": "0",
          "formattedValue": "(  0.0)"
        },
        {
          "operationId": "Mth01_CatVar_ByGrp_pct",
          "resultGroups": [
            {
              "groupingId": "AnlsGrouping_02_Trt",
              "groupId": "AnlsGrouping_02_Trt_2"
            },
            {
              "groupingId": "AnlsGrouping_04_Race",
              "groupId": "AnlsGrouping_04_Race_9"
            }
          ],
          "rawValue": "0",
          "formattedValue": "(  0.0)"
        },
        {
          "operationId": "Mth01_CatVar_ByGrp_pct",
          "resultGroups": [
            {
              "groupingId": "AnlsGrouping_02_Trt",
              "groupId": "AnlsGrouping_02_Trt_3"
            },
            {
              "groupingId": "AnlsGrouping_04_Race",
              "groupId": "AnlsGrouping_04_Race_1"
            }
          ],
          "rawValue": "0",
          "formattedValue": "(  0.0)"
        },
        {
          "operationId": "Mth01_CatVar_ByGrp_pct",
          "resultGroups": [
            {
              "groupingId": "AnlsGrouping_02_Trt",
              "groupId": "AnlsGrouping_02_Trt_3"
            },
            {
              "groupingId": "AnlsGrouping_04_Race",
              "groupId": "AnlsGrouping_04_Race_2"
            }
          ],
          "rawValue": "0",
          "formattedValue": "(  0.0)"
        },
        {
          "operationId": "Mth01_CatVar_ByGrp_pct",
          "resultGroups": [
            {
              "groupingId": "AnlsGrouping_02_Trt",
              "groupId": "AnlsGrouping_02_Trt_3"
            },
            {
              "groupingId": "AnlsGrouping_04_Race",
              "groupId": "AnlsGrouping_04_Race_3"
            }
          ],
          "rawValue": "7.142857142857143",
          "formattedValue": "(  7.1)"
        },
        {
          "operationId": "Mth01_CatVar_ByGrp_pct",
          "resultGroups": [
            {
              "groupingId": "AnlsGrouping_02_Trt",
              "groupId": "AnlsGrouping_02_Trt_3"
            },
            {
              "groupingId": "AnlsGrouping_04_Race",
              "groupId": "AnlsGrouping_04_Race_4"
            }
          ],
          "rawValue": "0",
          "formattedValue": "(  0.0)"
        },
        {
          "operationId": "Mth01_CatVar_ByGrp_pct",
          "resultGroups": [
            {
              "groupingId": "AnlsGrouping_02_Trt",
              "groupId": "AnlsGrouping_02_Trt_3"
            },
            {
              "groupingId": "AnlsGrouping_04_Race",
              "groupId": "AnlsGrouping_04_Race_5"
            }
          ],
          "rawValue": "92.85714285714286",
          "formattedValue": "( 92.9)"
        },
        {
          "operationId": "Mth01_CatVar_ByGrp_pct",
          "resultGroups": [
            {
              "groupingId": "AnlsGrouping_02_Trt",
              "groupId": "AnlsGrouping_02_Trt_3"
            },
            {
              "groupingId": "AnlsGrouping_04_Race",
              "groupId": "AnlsGrouping_04_Race_6"
            }
          ],
          "rawValue": "0",
          "formattedValue": "(  0.0)"
        },
        {
          "operationId": "Mth01_CatVar_ByGrp_pct",
          "resultGroups": [
            {
              "groupingId": "AnlsGrouping_02_Trt",
              "groupId": "AnlsGrouping_02_Trt_3"
            },
            {
              "groupingId": "AnlsGrouping_04_Race",
              "groupId": "AnlsGrouping_04_Race_7"
            }
          ],
          "rawValue": "0",
          "formattedValue": "(  0.0)"
        },
        {
          "operationId": "Mth01_CatVar_ByGrp_pct",
          "resultGroups": [
            {
              "groupingId": "AnlsGrouping_02_Trt",
              "groupId": "AnlsGrouping_02_Trt_3"
            },
            {
              "groupingId": "AnlsGrouping_04_Race",
              "groupId": "AnlsGrouping_04_Race_8"
            }
          ],
          "rawValue": "0",
          "formattedValue": "(  0.0)"
        },
        {
          "operationId": "Mth01_CatVar_ByGrp_pct",
          "resultGroups": [
            {
              "groupingId": "AnlsGrouping_02_Trt",
              "groupId": "AnlsGrouping_02_Trt_3"
            },
            {
              "groupingId": "AnlsGrouping_04_Race",
              "groupId": "AnlsGrouping_04_Race_9"
            }
          ],
          "rawValue": "0",
          "formattedValue": "(  0.0)"
        }
      ]
    },
    {
      "id": "An03.6_Height_ByTrt",
      "version": 1,
      "analysisSetId": "AnalysisSet_02_SAF",
      "orderedGroupings": [
        {
          "order": 1,
          "groupingId": "AnlsGrouping_02_Trt"
        }
      ],
      "dataset": "ADSL",
      "variable": "HEIGHTBL",
      "methodId": "Mth02_ContVar_ByGrp",
      "results": [
        {
          "operationId": "Mth02_ContVar_ByGrp_n",
          "resultGroups": [
            {
              "groupingId": "AnlsGrouping_02_Trt",
              "groupId": "AnlsGrouping_02_Trt_1"
            }
          ],
          "rawValue": "86",
          "formattedValue": "86"
        },
        {
          "operationId": "Mth02_ContVar_ByGrp_n",
          "resultGroups": [
            {
              "groupingId": "AnlsGrouping_02_Trt",
              "groupId": "AnlsGrouping_02_Trt_2"
            }
          ],
          "rawValue": "84",
          "formattedValue": "84"
        },
        {
          "operationId": "Mth02_ContVar_ByGrp_n",
          "resultGroups": [
            {
              "groupingId": "AnlsGrouping_02_Trt",
              "groupId": "AnlsGrouping_02_Trt_3"
            }
          ],
          "rawValue": "84",
          "formattedValue": "84"
        },
        {
          "operationId": "Mth02_ContVar_ByGrp_Mean",
          "resultGroups": [
            {
              "groupingId": "AnlsGrouping_02_Trt",
              "groupId": "AnlsGrouping_02_Trt_1"
            }
          ],
          "rawValue": "162.5732558",
          "formattedValue": "162.6"
        },
        {
          "operationId": "Mth02_ContVar_ByGrp_Mean",
          "resultGroups": [
            {
              "groupingId": "AnlsGrouping_02_Trt",
              "groupId": "AnlsGrouping_02_Trt_2"
            }
          ],
          "rawValue": "165.8202381",
          "formattedValue": "165.8"
        },
        {
          "operationId": "Mth02_ContVar_ByGrp_Mean",
          "resultGroups": [
            {
              "groupingId": "AnlsGrouping_02_Trt",
              "groupId": "AnlsGrouping_02_Trt_3"
            }
          ],
          "rawValue": "163.4333333",
          "formattedValue": "163.4"
        },
        {
          "operationId": "Mth02_ContVar_ByGrp_SD",
          "resultGroups": [
            {
              "groupingId": "AnlsGrouping_02_Trt",
              "groupId": "AnlsGrouping_02_Trt_1"
            }
          ],
          "rawValue": "11.5223611",
          "formattedValue": "(11.52)"
        },
        {
          "operationId": "Mth02_ContVar_ByGrp_SD",
          "resultGroups": [
            {
              "groupingId": "AnlsGrouping_02_Trt",
              "groupId": "AnlsGrouping_02_Trt_2"
            }
          ],
          "rawValue": "10.41924",
          "formattedValue": "(10.42)"
        },
        {
          "operationId": "Mth02_ContVar_ByGrp_SD",
          "resultGroups": [
            {
              "groupingId": "AnlsGrouping_02_Trt",
              "groupId": "AnlsGrouping_02_Trt_3"
            }
          ],
          "rawValue": "10.1313516",
          "formattedValue": "(10.13)"
        },
        {
          "operationId": "Mth02_ContVar_ByGrp_Median",
          "resultGroups": [
            {
              "groupingId": "AnlsGrouping_02_Trt",
              "groupId": "AnlsGrouping_02_Trt_1"
            }
          ],
          "rawValue": "162.6",
          "formattedValue": "162.6"
        },
        {
          "operationId": "Mth02_ContVar_ByGrp_Median",
          "resultGroups": [
            {
              "groupingId": "AnlsGrouping_02_Trt",
              "groupId": "AnlsGrouping_02_Trt_2"
            }
          ],
          "rawValue": "162.2",
          "formattedValue": "162.2"
        },
        {
          "operationId": "Mth02_ContVar_ByGrp_Median",
          "resultGroups": [
            {
              "groupingId": "AnlsGrouping_02_Trt",
              "groupId": "AnlsGrouping_02_Trt_3"
            }
          ],
          "rawValue": "165.1",
          "formattedValue": "165.1"
        },
        {
          "operationId": "Mth02_ContVar_ByGrp_Q1",
          "resultGroups": [
            {
              "groupingId": "AnlsGrouping_02_Trt",
              "groupId": "AnlsGrouping_02_Trt_1"
            }
          ],
          "rawValue": "153.7",
          "formattedValue": "153.7"
        },
        {
          "operationId": "Mth02_ContVar_ByGrp_Q1",
          "resultGroups": [
            {
              "groupingId": "AnlsGrouping_02_Trt",
              "groupId": "AnlsGrouping_02_Trt_2"
            }
          ],
          "rawValue": "157.5",
          "formattedValue": "157.5"
        },
        {
          "operationId": "Mth02_ContVar_ByGrp_Q1",
          "resultGroups": [
            {
              "groupingId": "AnlsGrouping_02_Trt",
              "groupId": "AnlsGrouping_02_Trt_3"
            }
          ],
          "rawValue": "157.5",
          "formattedValue": "157.5"
        },
        {
          "operationId": "Mth02_ContVar_ByGrp_Q3",
          "resultGroups": [
            {
              "groupingId": "AnlsGrouping_02_Trt",
              "groupId": "AnlsGrouping_02_Trt_1"
            }
          ],
          "rawValue": "171.5",
          "formattedValue": "171.5"
        },
        {
          "operationId": "Mth02_ContVar_ByGrp_Q3",
          "resultGroups": [
            {
              "groupingId": "AnlsGrouping_02_Trt",
              "groupId": "AnlsGrouping_02_Trt_2"
            }
          ],
          "rawValue": "170.2",
          "formattedValue": "170.2"
        },
        {
          "operationId": "Mth02_ContVar_ByGrp_Q3",
          "resultGroups": [
            {
              "groupingId": "AnlsGrouping_02_Trt",
              "groupId": "AnlsGrouping_02_Trt_3"
            }
          ],
          "rawValue": "172.85",
          "formattedValue": "172.9"
        },
        {
          "operationId": "Mth02_ContVar_ByGrp_Min",
          "resultGroups": [
            {
              "groupingId": "AnlsGrouping_02_Trt",
              "groupId": "AnlsGrouping_02_Trt_1"
            }
          ],
          "rawValue": "137.2",
          "formattedValue": "137.2"
        },
        {
          "operationId": "Mth02_ContVar_ByGrp_Min",
          "resultGroups": [
            {
              "groupingId": "AnlsGrouping_02_Trt",
              "groupId": "AnlsGrouping_02_Trt_2"
            }
          ],
          "rawValue": "135.9",
          "formattedValue": "135.9"
        },
        {
          "operationId": "Mth02_ContVar_ByGrp_Min",
          "resultGroups": [
            {
              "groupingId": "AnlsGrouping_02_Trt",
              "groupId": "AnlsGrouping_02_Trt_3"
            }
          ],
          "rawValue": "146.1",
          "formattedValue": "146.1"
        },
        {
          "operationId": "Mth02_ContVar_ByGrp_Max",
          "resultGroups": [
            {
              "groupingId": "AnlsGrouping_02_Trt",
              "groupId": "AnlsGrouping_02_Trt_1"
            }
          ],
          "rawValue": "185.4",
          "formattedValue": "185.4"
        },
        {
          "operationId": "Mth02_ContVar_ByGrp_Max",
          "resultGroups": [
            {
              "groupingId": "AnlsGrouping_02_Trt",
              "groupId": "AnlsGrouping_02_Trt_2"
            }
          ],
          "rawValue": "195.6",
          "formattedValue": "195.6"
        },
        {
          "operationId": "Mth02_ContVar_ByGrp_Max",
          "resultGroups": [
            {
              "groupingId": "AnlsGrouping_02_Trt",
              "groupId": "AnlsGrouping_02_Trt_3"
            }
          ],
          "rawValue": "190.5",
          "formattedValue": "190.5"
        }
      ]
    },
    {
      "id": "An07.1_AnyAE_ByTrt",
      "version": 1,
      "analysisSetId": "AnalysisSet_02_SAF",
      "orderedGroupings": [
        {
          "order": 1,
          "groupingId": "AnlsGrouping_02_Trt"
        }
      ],
      "dataSubsetId": "Dss01_TrtEm",
      "dataset": "ADAE",
      "variable": "USUBJID",
      "methodId": "Mth01_CatVar_ByGrp",
      "referencedAnalysisOperations": [
        {
          "analysisId": "An07.1_AnyAE_ByTrt",
          "referencedOperationId": "Mth01_CatVar_ByGrp_pct_NUM"
        },
        {
          "analysisId": "An01.5_SAF_ByTrt",
          "referencedOperationId": "Mth01_CatVar_ByGrp_pct_DEN"
        }
      ],
      "results": [
        {
          "operationId": "Mth01_CatVar_ByGrp_n",
          "resultGroups": [
            {
              "groupingId": "AnlsGrouping_02_Trt",
              "groupId": "AnlsGrouping_02_Trt_1"
            }
          ],
          "rawValue": "65",
          "formattedValue": "65"
        },
        {
          "operationId": "Mth01_CatVar_ByGrp_pct",
          "resultGroups": [
            {
              "groupingId": "AnlsGrouping_02_Trt",
              "groupId": "AnlsGrouping_02_Trt_1"
            }
          ],
          "rawValue": "75.581395349",
          "formattedValue": "( 75.6)"
        },
        {
          "operationId": "Mth01_CatVar_ByGrp_n",
          "resultGroups": [
            {
              "groupingId": "AnlsGrouping_02_Trt",
              "groupId": "AnlsGrouping_02_Trt_2"
            }
          ],
          "rawValue": "77",
          "formattedValue": "77"
        },
        {
          "operationId": "Mth01_CatVar_ByGrp_pct",
          "resultGroups": [
            {
              "groupingId": "AnlsGrouping_02_Trt",
              "groupId": "AnlsGrouping_02_Trt_2"
            }
          ],
          "rawValue": "91.666666667",
          "formattedValue": "( 91.7)"
        },
        {
          "operationId": "Mth01_CatVar_ByGrp_n",
          "resultGroups": [
            {
              "groupingId": "AnlsGrouping_02_Trt",
              "groupId": "AnlsGrouping_02_Trt_3"
            }
          ],
          "rawValue": "76",
          "formattedValue": "76"
        },
        {
          "operationId": "Mth01_CatVar_ByGrp_pct",
          "resultGroups": [
            {
              "groupingId": "AnlsGrouping_02_Trt",
              "groupId": "AnlsGrouping_02_Trt_3"
            }
          ],
          "rawValue": "90.476190476",
          "formattedValue": "( 90.5)"
        }
      ]
    },
    {
      "id": "An07.2_Soc_ByTrt",
      "version": 1,
      "analysisSetId": "AnalysisSet_02_SAF",
      "orderedGroupings": [
        {
          "order": 1,
          "groupingId": "AnlsGrouping_02_Trt"
        },
        {
          "order": 2,
          "dataGrouping": {
            "id": "AnlsGrouping_06_Soc",
            "dataDriven": true,
            "label": "System Organ Class",
            "groupingVariable": "AESOC"
          }
        }
      ],
      "dataSubsetId": "Dss01_TrtEm",
      "dataset": "ADAE",
      "variable": "AESOC",
      "methodId": "Mth01_CatVar_ByGrp",
      "referencedAnalysisOperations": [
        {
          "analysisId": "An07.2_Soc_ByTrt",
          "referencedOperationId": "Mth01_CatVar_ByGrp_pct_NUM"
        },
        {
          "analysisId": "An01.5_SAF_ByTrt",
          "referencedOperationId": "Mth01_CatVar_ByGrp_pct_DEN"
        }
      ],
      "results": [
        {
          "operationId": "Mth01_CatVar_ByGrp_n",
          "resultGroups": [
            {
              "groupingId": "AnlsGrouping_02_Trt",
              "groupId": "AnlsGrouping_02_Trt_1"
            },
            {
              "groupingId": "AnlsGrouping_06_Soc",
              "groupValue": "CARDIAC DISORDERS"
            }
          ],
          "rawValue": "12",
          "formattedValue": "12"
        },
        {
          "operationId": "Mth01_CatVar_ByGrp_pct",
          "resultGroups": [
            {
              "groupingId": "AnlsGrouping_02_Trt",
              "groupId": "AnlsGrouping_02_Trt_1"
            },
            {
              "groupingId": "AnlsGrouping_06_Soc",
              "groupValue": "CARDIAC DISORDERS"
            }
          ],
          "rawValue": "13.9535",
          "formattedValue": "( 14.0)"
        },
        {
          "operationId": "Mth01_CatVar_ByGrp_n",
          "resultGroups": [
            {
              "groupingId": "AnlsGrouping_02_Trt",
              "groupId": "AnlsGrouping_02_Trt_1"
            },
            {
              "groupingId": "AnlsGrouping_06_Soc",
              "groupValue": "CONGENITAL, FAMILIAL AND GENETIC DISORDERS"
            }
          ],
          "rawValue": "0",
          "formattedValue": "0"
        },
        {
          "operationId": "Mth01_CatVar_ByGrp_pct",
          "resultGroups": [
            {
              "groupingId": "AnlsGrouping_02_Trt",
              "groupId": "AnlsGrouping_02_Trt_1"
            },
            {
              "groupingId": "AnlsGrouping_06_Soc",
              "groupValue": "CONGENITAL, FAMILIAL AND GENETIC DISORDERS"
            }
          ],
          "rawValue": "0",
          "formattedValue": "(  0.0)"
        },
        {
          "operationId": "Mth01_CatVar_ByGrp_n",
          "resultGroups": [
            {
              "groupingId": "AnlsGrouping_02_Trt",
              "groupId": "AnlsGrouping_02_Trt_1"
            },
            {
              "groupingId": "AnlsGrouping_06_Soc",
              "groupValue": "EAR AND LABYRINTH DISORDERS"
            }
          ],
          "rawValue": "1",
          "formattedValue": "1"
        },
        {
          "operationId": "Mth01_CatVar_ByGrp_pct",
          "resultGroups": [
            {
              "groupingId": "AnlsGrouping_02_Trt",
              "groupId": "AnlsGrouping_02_Trt_1"
            },
            {
              "groupingId": "AnlsGrouping_06_Soc",
              "groupValue": "EAR AND LABYRINTH DISORDERS"
            }
          ],
          "rawValue": "1.1628",
          "formattedValue": "(  1.2)"
        },
        {
          "operationId": "Mth01_CatVar_ByGrp_n",
          "resultGroups": [
            {
              "groupingId": "AnlsGrouping_02_Trt",
              "groupId": "AnlsGrouping_02_Trt_1"
            },
            {
              "groupingId": "AnlsGrouping_06_Soc",
              "groupValue": "EYE DISORDERS"
            }
          ],
          "rawValue": "2",
          "formattedValue": "2"
        },
        {
          "operationId": "Mth01_CatVar_ByGrp_pct",
          "resultGroups": [
            {
              "groupingId": "AnlsGrouping_02_Trt",
              "groupId": "AnlsGrouping_02_Trt_1"
            },
            {
              "groupingId": "AnlsGrouping_06_Soc",
              "groupValue": "EYE DISORDERS"
            }
          ],
          "rawValue": "2.3256",
          "formattedValue": "(  2.3)"
        },
        {
          "operationId": "Mth01_CatVar_ByGrp_n",
          "resultGroups": [
            {
              "groupingId": "AnlsGrouping_02_Trt",
              "groupId": "AnlsGrouping_02_Trt_1"
            },
            {
              "groupingId": "AnlsGrouping_06_Soc",
              "groupValue": "GASTROINTESTINAL DISORDERS"
            }
          ],
          "rawValue": "17",
          "formattedValue": "17"
        },
        {
          "operationId": "Mth01_CatVar_ByGrp_pct",
          "resultGroups": [
            {
              "groupingId": "AnlsGrouping_02_Trt",
              "groupId": "AnlsGrouping_02_Trt_1"
            },
            {
              "groupingId": "AnlsGrouping_06_Soc",
              "groupValue": "GASTROINTESTINAL DISORDERS"
            }
          ],
          "rawValue": "19.7674",
          "formattedValue": "( 19.8)"
        },
        {
          "operationId": "Mth01_CatVar_ByGrp_n",
          "resultGroups": [
            {
              "groupingId": "AnlsGrouping_02_Trt",
              "groupId": "AnlsGrouping_02_Trt_1"
            },
            {
              "groupingId": "AnlsGrouping_06_Soc",
              "groupValue": "GENERAL DISORDERS AND ADMINISTRATION SITE CONDITIONS"
            }
          ],
          "rawValue": "21",
          "formattedValue": "21"
        },
        {
          "operationId": "Mth01_CatVar_ByGrp_pct",
          "resultGroups": [
            {
              "groupingId": "AnlsGrouping_02_Trt",
              "groupId": "AnlsGrouping_02_Trt_1"
            },
            {
              "groupingId": "AnlsGrouping_06_Soc",
              "groupValue": "GENERAL DISORDERS AND ADMINISTRATION SITE CONDITIONS"
            }
          ],
          "rawValue": "24.4186",
          "formattedValue": "( 24.4)"
        },
        {
          "operationId": "Mth01_CatVar_ByGrp_n",
          "resultGroups": [
            {
              "groupingId": "AnlsGrouping_02_Trt",
              "groupId": "AnlsGrouping_02_Trt_1"
            },
            {
              "groupingId": "AnlsGrouping_06_Soc",
              "groupValue": "HEPATOBILIARY DISORDERS"
            }
          ],
          "rawValue": "1",
          "formattedValue": "1"
        },
        {
          "operationId": "Mth01_CatVar_ByGrp_pct",
          "resultGroups": [
            {
              "groupingId": "AnlsGrouping_02_Trt",
              "groupId": "AnlsGrouping_02_Trt_1"
            },
            {
              "groupingId": "AnlsGrouping_06_Soc",
              "groupValue": "HEPATOBILIARY DISORDERS"
            }
          ],
          "rawValue": "1.1628",
          "formattedValue": "(  1.2)"
        },
        {
          "operationId": "Mth01_CatVar_ByGrp_n",
          "resultGroups": [
            {
              "groupingId": "AnlsGrouping_02_Trt",
              "groupId": "AnlsGrouping_02_Trt_1"
            },
            {
              "groupingId": "AnlsGrouping_06_Soc",
              "groupValue": "IMMUNE SYSTEM DISORDERS"
            }
          ],
          "rawValue": "0",
          "formattedValue": "0"
        },
        {
          "operationId": "Mth01_CatVar_ByGrp_pct",
          "resultGroups": [
            {
              "groupingId": "AnlsGrouping_02_Trt",
              "groupId": "AnlsGrouping_02_Trt_1"
            },
            {
              "groupingId": "AnlsGrouping_06_Soc",
              "groupValue": "IMMUNE SYSTEM DISORDERS"
            }
          ],
          "rawValue": "0",
          "formattedValue": "(  0.0)"
        },
        {
          "operationId": "Mth01_CatVar_ByGrp_n",
          "resultGroups": [
            {
              "groupingId": "AnlsGrouping_02_Trt",
              "groupId": "AnlsGrouping_02_Trt_1"
            },
            {
              "groupingId": "AnlsGrouping_06_Soc",
              "groupValue": "INFECTIONS AND INFESTATIONS"
            }
          ],
          "rawValue": "16",
          "formattedValue": "16"
        },
        {
          "operationId": "Mth01_CatVar_ByGrp_pct",
          "resultGroups": [
            {
              "groupingId": "AnlsGrouping_02_Trt",
              "groupId": "AnlsGrouping_02_Trt_1"
            },
            {
              "groupingId": "AnlsGrouping_06_Soc",
              "groupValue": "INFECTIONS AND INFESTATIONS"
            }
          ],
          "rawValue": "18.6047",
          "formattedValue": "( 18.6)"
        },
        {
          "operationId": "Mth01_CatVar_ByGrp_n",
          "resultGroups": [
            {
              "groupingId": "AnlsGrouping_02_Trt",
              "groupId": "AnlsGrouping_02_Trt_1"
            },
            {
              "groupingId": "AnlsGrouping_06_Soc",
              "groupValue": "INJURY, POISONING AND PROCEDURAL COMPLICATIONS"
            }
          ],
          "rawValue": "4",
          "formattedValue": "4"
        },
        {
          "operationId": "Mth01_CatVar_ByGrp_pct",
          "resultGroups": [
            {
              "groupingId": "AnlsGrouping_02_Trt",
              "groupId": "AnlsGrouping_02_Trt_1"
            },
            {
              "groupingId": "AnlsGrouping_06_Soc",
              "groupValue": "INJURY, POISONING AND PROCEDURAL COMPLICATIONS"
            }
          ],
          "rawValue": "4.6512",
          "formattedValue": "(  4.7)"
        },
        {
          "operationId": "Mth01_CatVar_ByGrp_n",
          "resultGroups": [
            {
              "groupingId": "AnlsGrouping_02_Trt",
              "groupId": "AnlsGrouping_02_Trt_1"
            },
            {
              "groupingId": "AnlsGrouping_06_Soc",
              "groupValue": "INVESTIGATIONS"
            }
          ],
          "rawValue": "10",
          "formattedValue": "10"
        },
        {
          "operationId": "Mth01_CatVar_ByGrp_pct",
          "resultGroups": [
            {
              "groupingId": "AnlsGrouping_02_Trt",
              "groupId": "AnlsGrouping_02_Trt_1"
            },
            {
              "groupingId": "AnlsGrouping_06_Soc",
              "groupValue": "INVESTIGATIONS"
            }
          ],
          "rawValue": "11.6279",
          "formattedValue": "( 11.6)"
        },
        {
          "operationId": "Mth01_CatVar_ByGrp_n",
          "resultGroups": [
            {
              "groupingId": "AnlsGrouping_02_Trt",
              "groupId": "AnlsGrouping_02_Trt_1"
            },
            {
              "groupingId": "AnlsGrouping_06_Soc",
              "groupValue": "METABOLISM AND NUTRITION DISORDERS"
            }
          ],
          "rawValue": "6",
          "formattedValue": "6"
        },
        {
          "operationId": "Mth01_CatVar_ByGrp_pct",
          "resultGroups": [
            {
              "groupingId": "AnlsGrouping_02_Trt",
              "groupId": "AnlsGrouping_02_Trt_1"
            },
            {
              "groupingId": "AnlsGrouping_06_Soc",
              "groupValue": "METABOLISM AND NUTRITION DISORDERS"
            }
          ],
          "rawValue": "6.9767",
          "formattedValue": "(  7.0)"
        },
        {
          "operationId": "Mth01_CatVar_ByGrp_n",
          "resultGroups": [
            {
              "groupingId": "AnlsGrouping_02_Trt",
              "groupId": "AnlsGrouping_02_Trt_1"
            },
            {
              "groupingId": "AnlsGrouping_06_Soc",
              "groupValue": "MUSCULOSKELETAL AND CONNECTIVE TISSUE DISORDERS"
            }
          ],
          "rawValue": "4",
          "formattedValue": "4"
        },
        {
          "operationId": "Mth01_CatVar_ByGrp_pct",
          "resultGroups": [
            {
              "groupingId": "AnlsGrouping_02_Trt",
              "groupId": "AnlsGrouping_02_Trt_1"
            },
            {
              "groupingId": "AnlsGrouping_06_Soc",
              "groupValue": "MUSCULOSKELETAL AND CONNECTIVE TISSUE DISORDERS"
            }
          ],
          "rawValue": "4.6512",
          "formattedValue": "(  4.7)"
        },
        {
          "operationId": "Mth01_CatVar_ByGrp_n",
          "resultGroups": [
            {
              "groupingId": "AnlsGrouping_02_Trt",
              "groupId": "AnlsGrouping_02_Trt_1"
            },
            {
              "groupingId": "AnlsGrouping_06_Soc",
              "groupValue": "NEOPLASMS BENIGN, MALIGNANT AND UNSPECIFIED (INCL CYSTS AND POLYPS)"
            }
          ],
          "rawValue": "0",
          "formattedValue": "0"
        },
        {
          "operationId": "Mth01_CatVar_ByGrp_pct",
          "resultGroups": [
            {
              "groupingId": "AnlsGrouping_02_Trt",
              "groupId": "AnlsGrouping_02_Trt_1"
            },
            {
              "groupingId": "AnlsGrouping_06_Soc",
              "groupValue": "NEOPLASMS BENIGN, MALIGNANT AND UNSPECIFIED (INCL CYSTS AND POLYPS)"
            }
          ],
          "rawValue": "0",
          "formattedValue": "(  0.0)"
        },
        {
          "operationId": "Mth01_CatVar_ByGrp_n",
          "resultGroups": [
            {
              "groupingId": "AnlsGrouping_02_Trt",
              "groupId": "AnlsGrouping_02_Trt_1"
            },
            {
              "groupingId": "AnlsGrouping_06_Soc",
              "groupValue": "NERVOUS SYSTEM DISORDERS"
            }
          ],
          "rawValue": "8",
          "formattedValue": "8"
        },
        {
          "operationId": "Mth01_CatVar_ByGrp_pct",
          "resultGroups": [
            {
              "groupingId": "AnlsGrouping_02_Trt",
              "groupId": "AnlsGrouping_02_Trt_1"
            },
            {
              "groupingId": "AnlsGrouping_06_Soc",
              "groupValue": "NERVOUS SYSTEM DISORDERS"
            }
          ],
          "rawValue": "9.3023",
          "formattedValue": "(  9.3)"
        },
        {
          "operationId": "Mth01_CatVar_ByGrp_n",
          "resultGroups": [
            {
              "groupingId": "AnlsGrouping_02_Trt",
              "groupId": "AnlsGrouping_02_Trt_1"
            },
            {
              "groupingId": "AnlsGrouping_06_Soc",
              "groupValue": "PSYCHIATRIC DISORDERS"
            }
          ],
          "rawValue": "10",
          "formattedValue": "10"
        },
        {
          "operationId": "Mth01_CatVar_ByGrp_pct",
          "resultGroups": [
            {
              "groupingId": "AnlsGrouping_02_Trt",
              "groupId": "AnlsGrouping_02_Trt_1"
            },
            {
              "groupingId": "AnlsGrouping_06_Soc",
              "groupValue": "PSYCHIATRIC DISORDERS"
            }
          ],
          "rawValue": "11.6279",
          "formattedValue": "( 11.6)"
        },
        {
          "operationId": "Mth01_CatVar_ByGrp_n",
          "resultGroups": [
            {
              "groupingId": "AnlsGrouping_02_Trt",
              "groupId": "AnlsGrouping_02_Trt_1"
            },
            {
              "groupingId": "AnlsGrouping_06_Soc",
              "groupValue": "RENAL AND URINARY DISORDERS"
            }
          ],
          "rawValue": "4",
          "formattedValue": "4"
        },
        {
          "operationId": "Mth01_CatVar_ByGrp_pct",
          "resultGroups": [
            {
              "groupingId": "AnlsGrouping_02_Trt",
              "groupId": "AnlsGrouping_02_Trt_1"
            },
            {
              "groupingId": "AnlsGrouping_06_Soc",
              "groupValue": "RENAL AND URINARY DISORDERS"
            }
          ],
          "rawValue": "4.6512",
          "formattedValue": "(  4.7)"
        },
        {
          "operationId": "Mth01_CatVar_ByGrp_n",
          "resultGroups": [
            {
              "groupingId": "AnlsGrouping_02_Trt",
              "groupId": "AnlsGrouping_02_Trt_1"
            },
            {
              "groupingId": "AnlsGrouping_06_Soc",
              "groupValue": "REPRODUCTIVE SYSTEM AND BREAST DISORDERS"
            }
          ],
          "rawValue": "2",
          "formattedValue": "2"
        },
        {
          "operationId": "Mth01_CatVar_ByGrp_pct",
          "resultGroups": [
            {
              "groupingId": "AnlsGrouping_02_Trt",
              "groupId": "AnlsGrouping_02_Trt_1"
            },
            {
              "groupingId": "AnlsGrouping_06_Soc",
              "groupValue": "REPRODUCTIVE SYSTEM AND BREAST DISORDERS"
            }
          ],
          "rawValue": "2.3256",
          "formattedValue": "(  2.3)"
        },
        {
          "operationId": "Mth01_CatVar_ByGrp_n",
          "resultGroups": [
            {
              "groupingId": "AnlsGrouping_02_Trt",
              "groupId": "AnlsGrouping_02_Trt_1"
            },
            {
              "groupingId": "AnlsGrouping_06_Soc",
              "groupValue": "RESPIRATORY, THORACIC AND MEDIASTINAL DISORDERS"
            }
          ],
          "rawValue": "8",
          "formattedValue": "8"
        },
        {
          "operationId": "Mth01_CatVar_ByGrp_pct",
          "resultGroups": [
            {
              "groupingId": "AnlsGrouping_02_Trt",
              "groupId": "AnlsGrouping_02_Trt_1"
            },
            {
              "groupingId": "AnlsGrouping_06_Soc",
              "groupValue": "RESPIRATORY, THORACIC AND MEDIASTINAL DISORDERS"
            }
          ],
          "rawValue": "9.3023",
          "formattedValue": "(  9.3)"
        },
        {
          "operationId": "Mth01_CatVar_ByGrp_n",
          "resultGroups": [
            {
              "groupingId": "AnlsGrouping_02_Trt",
              "groupId": "AnlsGrouping_02_Trt_1"
            },
            {
              "groupingId": "AnlsGrouping_06_Soc",
              "groupValue": "SKIN AND SUBCUTANEOUS TISSUE DISORDERS"
            }
          ],
          "rawValue": "20",
          "formattedValue": "20"
        },
        {
          "operationId": "Mth01_CatVar_ByGrp_pct",
          "resultGroups": [
            {
              "groupingId": "AnlsGrouping_02_Trt",
              "groupId": "AnlsGrouping_02_Trt_1"
            },
            {
              "groupingId": "AnlsGrouping_06_Soc",
              "groupValue": "SKIN AND SUBCUTANEOUS TISSUE DISORDERS"
            }
          ],
          "rawValue": "23.2558",
          "formattedValue": "( 23.3)"
        },
        {
          "operationId": "Mth01_CatVar_ByGrp_n",
          "resultGroups": [
            {
              "groupingId": "AnlsGrouping_02_Trt",
              "groupId": "AnlsGrouping_02_Trt_1"
            },
            {
              "groupingId": "AnlsGrouping_06_Soc",
              "groupValue": "SOCIAL CIRCUMSTANCES"
            }
          ],
          "rawValue": "0",
          "formattedValue": "0"
        },
        {
          "operationId": "Mth01_CatVar_ByGrp_pct",
          "resultGroups": [
            {
              "groupingId": "AnlsGrouping_02_Trt",
              "groupId": "AnlsGrouping_02_Trt_1"
            },
            {
              "groupingId": "AnlsGrouping_06_Soc",
              "groupValue": "SOCIAL CIRCUMSTANCES"
            }
          ],
          "rawValue": "0",
          "formattedValue": "(  0.0)"
        },
        {
          "operationId": "Mth01_CatVar_ByGrp_n",
          "resultGroups": [
            {
              "groupingId": "AnlsGrouping_02_Trt",
              "groupId": "AnlsGrouping_02_Trt_1"
            },
            {
              "groupingId": "AnlsGrouping_06_Soc",
              "groupValue": "SURGICAL AND MEDICAL PROCEDURES"
            }
          ],
          "rawValue": "2",
          "formattedValue": "2"
        },
        {
          "operationId": "Mth01_CatVar_ByGrp_pct",
          "resultGroups": [
            {
              "groupingId": "AnlsGrouping_02_Trt",
              "groupId": "AnlsGrouping_02_Trt_1"
            },
            {
              "groupingId": "AnlsGrouping_06_Soc",
              "groupValue": "SURGICAL AND MEDICAL PROCEDURES"
            }
          ],
          "rawValue": "2.3256",
          "formattedValue": "(  2.3)"
        },
        {
          "operationId": "Mth01_CatVar_ByGrp_n",
          "resultGroups": [
            {
              "groupingId": "AnlsGrouping_02_Trt",
              "groupId": "AnlsGrouping_02_Trt_1"
            },
            {
              "groupingId": "AnlsGrouping_06_Soc",
              "groupValue": "VASCULAR DISORDERS"
            }
          ],
          "rawValue": "3",
          "formattedValue": "3"
        },
        {
          "operationId": "Mth01_CatVar_ByGrp_pct",
          "resultGroups": [
            {
              "groupingId": "AnlsGrouping_02_Trt",
              "groupId": "AnlsGrouping_02_Trt_1"
            },
            {
              "groupingId": "AnlsGrouping_06_Soc",
              "groupValue": "VASCULAR DISORDERS"
            }
          ],
          "rawValue": "3.4884",
          "formattedValue": "(  3.5)"
        },
        {
          "operationId": "Mth01_CatVar_ByGrp_n",
          "resultGroups": [
            {
              "groupingId": "AnlsGrouping_02_Trt",
              "groupId": "AnlsGrouping_02_Trt_2"
            },
            {
              "groupingId": "AnlsGrouping_06_Soc",
              "groupValue": "CARDIAC DISORDERS"
            }
          ],
          "rawValue": "13",
          "formattedValue": "13"
        },
        {
          "operationId": "Mth01_CatVar_ByGrp_pct",
          "resultGroups": [
            {
              "groupingId": "AnlsGrouping_02_Trt",
              "groupId": "AnlsGrouping_02_Trt_2"
            },
            {
              "groupingId": "AnlsGrouping_06_Soc",
              "groupValue": "CARDIAC DISORDERS"
            }
          ],
          "rawValue": "15.4762",
          "formattedValue": "( 15.5)"
        },
        {
          "operationId": "Mth01_CatVar_ByGrp_n",
          "resultGroups": [
            {
              "groupingId": "AnlsGrouping_02_Trt",
              "groupId": "AnlsGrouping_02_Trt_2"
            },
            {
              "groupingId": "AnlsGrouping_06_Soc",
              "groupValue": "CONGENITAL, FAMILIAL AND GENETIC DISORDERS"
            }
          ],
          "rawValue": "1",
          "formattedValue": "1"
        },
        {
          "operationId": "Mth01_CatVar_ByGrp_pct",
          "resultGroups": [
            {
              "groupingId": "AnlsGrouping_02_Trt",
              "groupId": "AnlsGrouping_02_Trt_2"
            },
            {
              "groupingId": "AnlsGrouping_06_Soc",
              "groupValue": "CONGENITAL, FAMILIAL AND GENETIC DISORDERS"
            }
          ],
          "rawValue": "1.1905",
          "formattedValue": "(  1.2)"
        },
        {
          "operationId": "Mth01_CatVar_ByGrp_n",
          "resultGroups": [
            {
              "groupingId": "AnlsGrouping_02_Trt",
              "groupId": "AnlsGrouping_02_Trt_2"
            },
            {
              "groupingId": "AnlsGrouping_06_Soc",
              "groupValue": "EAR AND LABYRINTH DISORDERS"
            }
          ],
          "rawValue": "2",
          "formattedValue": "2"
        },
        {
          "operationId": "Mth01_CatVar_ByGrp_pct",
          "resultGroups": [
            {
              "groupingId": "AnlsGrouping_02_Trt",
              "groupId": "AnlsGrouping_02_Trt_2"
            },
            {
              "groupingId": "AnlsGrouping_06_Soc",
              "groupValue": "EAR AND LABYRINTH DISORDERS"
            }
          ],
          "rawValue": "2.381",
          "formattedValue": "(  2.4)"
        },
        {
          "operationId": "Mth01_CatVar_ByGrp_n",
          "resultGroups": [
            {
              "groupingId": "AnlsGrouping_02_Trt",
              "groupId": "AnlsGrouping_02_Trt_2"
            },
            {
              "groupingId": "AnlsGrouping_06_Soc",
              "groupValue": "EYE DISORDERS"
            }
          ],
          "rawValue": "2",
          "formattedValue": "2"
        },
        {
          "operationId": "Mth01_CatVar_ByGrp_pct",
          "resultGroups": [
            {
              "groupingId": "AnlsGrouping_02_Trt",
              "groupId": "AnlsGrouping_02_Trt_2"
            },
            {
              "groupingId": "AnlsGrouping_06_Soc",
              "groupValue": "EYE DISORDERS"
            }
          ],
          "rawValue": "2.381",
          "formattedValue": "(  2.4)"
        },
        {
          "operationId": "Mth01_CatVar_ByGrp_n",
          "resultGroups": [
            {
              "groupingId": "AnlsGrouping_02_Trt",
              "groupId": "AnlsGrouping_02_Trt_2"
            },
            {
              "groupingId": "AnlsGrouping_06_Soc",
              "groupValue": "GASTROINTESTINAL DISORDERS"
            }
          ],
          "rawValue": "14",
          "formattedValue": "14"
        },
        {
          "operationId": "Mth01_CatVar_ByGrp_pct",
          "resultGroups": [
            {
              "groupingId": "AnlsGrouping_02_Trt",
              "groupId": "AnlsGrouping_02_Trt_2"
            },
            {
              "groupingId": "AnlsGrouping_06_Soc",
              "groupValue": "GASTROINTESTINAL DISORDERS"
            }
          ],
          "rawValue": "16.6667",
          "formattedValue": "( 16.7)"
        },
        {
          "operationId": "Mth01_CatVar_ByGrp_n",
          "resultGroups": [
            {
              "groupingId": "AnlsGrouping_02_Trt",
              "groupId": "AnlsGrouping_02_Trt_2"
            },
            {
              "groupingId": "AnlsGrouping_06_Soc",
              "groupValue": "GENERAL DISORDERS AND ADMINISTRATION SITE CONDITIONS"
            }
          ],
          "rawValue": "47",
          "formattedValue": "47"
        },
        {
          "operationId": "Mth01_CatVar_ByGrp_pct",
          "resultGroups": [
            {
              "groupingId": "AnlsGrouping_02_Trt",
              "groupId": "AnlsGrouping_02_Trt_2"
            },
            {
              "groupingId": "AnlsGrouping_06_Soc",
              "groupValue": "GENERAL DISORDERS AND ADMINISTRATION SITE CONDITIONS"
            }
          ],
          "rawValue": "55.9524",
          "formattedValue": "( 56.0)"
        },
        {
          "operationId": "Mth01_CatVar_ByGrp_n",
          "resultGroups": [
            {
              "groupingId": "AnlsGrouping_02_Trt",
              "groupId": "AnlsGrouping_02_Trt_2"
            },
            {
              "groupingId": "AnlsGrouping_06_Soc",
              "groupValue": "HEPATOBILIARY DISORDERS"
            }
          ],
          "rawValue": "0",
          "formattedValue": "0"
        },
        {
          "operationId": "Mth01_CatVar_ByGrp_pct",
          "resultGroups": [
            {
              "groupingId": "AnlsGrouping_02_Trt",
              "groupId": "AnlsGrouping_02_Trt_2"
            },
            {
              "groupingId": "AnlsGrouping_06_Soc",
              "groupValue": "HEPATOBILIARY DISORDERS"
            }
          ],
          "rawValue": "0",
          "formattedValue": "(  0.0)"
        },
        {
          "operationId": "Mth01_CatVar_ByGrp_n",
          "resultGroups": [
            {
              "groupingId": "AnlsGrouping_02_Trt",
              "groupId": "AnlsGrouping_02_Trt_2"
            },
            {
              "groupingId": "AnlsGrouping_06_Soc",
              "groupValue": "IMMUNE SYSTEM DISORDERS"
            }
          ],
          "rawValue": "1",
          "formattedValue": "1"
        },
        {
          "operationId": "Mth01_CatVar_ByGrp_pct",
          "resultGroups": [
            {
              "groupingId": "AnlsGrouping_02_Trt",
              "groupId": "AnlsGrouping_02_Trt_2"
            },
            {
              "groupingId": "AnlsGrouping_06_Soc",
              "groupValue": "IMMUNE SYSTEM DISORDERS"
            }
          ],
          "rawValue": "1.1905",
          "formattedValue": "(  1.2)"
        },
        {
          "operationId": "Mth01_CatVar_ByGrp_n",
          "resultGroups": [
            {
              "groupingId": "AnlsGrouping_02_Trt",
              "groupId": "AnlsGrouping_02_Trt_2"
            },
            {
              "groupingId": "AnlsGrouping_06_Soc",
              "groupValue": "INFECTIONS AND INFESTATIONS"
            }
          ],
          "rawValue": "9",
          "formattedValue": "9"
        },
        {
          "operationId": "Mth01_CatVar_ByGrp_pct",
          "resultGroups": [
            {
              "groupingId": "AnlsGrouping_02_Trt",
              "groupId": "AnlsGrouping_02_Trt_2"
            },
            {
              "groupingId": "AnlsGrouping_06_Soc",
              "groupValue": "INFECTIONS AND INFESTATIONS"
            }
          ],
          "rawValue": "10.7143",
          "formattedValue": "( 10.7)"
        },
        {
          "operationId": "Mth01_CatVar_ByGrp_n",
          "resultGroups": [
            {
              "groupingId": "AnlsGrouping_02_Trt",
              "groupId": "AnlsGrouping_02_Trt_2"
            },
            {
              "groupingId": "AnlsGrouping_06_Soc",
              "groupValue": "INJURY, POISONING AND PROCEDURAL COMPLICATIONS"
            }
          ],
          "rawValue": "5",
          "formattedValue": "5"
        },
        {
          "operationId": "Mth01_CatVar_ByGrp_pct",
          "resultGroups": [
            {
              "groupingId": "AnlsGrouping_02_Trt",
              "groupId": "AnlsGrouping_02_Trt_2"
            },
            {
              "groupingId": "AnlsGrouping_06_Soc",
              "groupValue": "INJURY, POISONING AND PROCEDURAL COMPLICATIONS"
            }
          ],
          "rawValue": "5.9524",
          "formattedValue": "(  6.0)"
        },
        {
          "operationId": "Mth01_CatVar_ByGrp_n",
          "resultGroups": [
            {
              "groupingId": "AnlsGrouping_02_Trt",
              "groupId": "AnlsGrouping_02_Trt_2"
            },
            {
              "groupingId": "AnlsGrouping_06_Soc",
              "groupValue": "INVESTIGATIONS"
            }
          ],
          "rawValue": "6",
          "formattedValue": "6"
        },
        {
          "operationId": "Mth01_CatVar_ByGrp_pct",
          "resultGroups": [
            {
              "groupingId": "AnlsGrouping_02_Trt",
              "groupId": "AnlsGrouping_02_Trt_2"
            },
            {
              "groupingId": "AnlsGrouping_06_Soc",
              "groupValue": "INVESTIGATIONS"
            }
          ],
          "rawValue": "7.1429",
          "formattedValue": "(  7.1)"
        },
        {
          "operationId": "Mth01_CatVar_ByGrp_n",
          "resultGroups": [
            {
              "groupingId": "AnlsGrouping_02_Trt",
              "groupId": "AnlsGrouping_02_Trt_2"
            },
            {
              "groupingId": "AnlsGrouping_06_Soc",
              "groupValue": "METABOLISM AND NUTRITION DISORDERS"
            }
          ],
          "rawValue": "1",
          "formattedValue": "1"
        },
        {
          "operationId": "Mth01_CatVar_ByGrp_pct",
          "resultGroups": [
            {
              "groupingId": "AnlsGrouping_02_Trt",
              "groupId": "AnlsGrouping_02_Trt_2"
            },
            {
              "groupingId": "AnlsGrouping_06_Soc",
              "groupValue": "METABOLISM AND NUTRITION DISORDERS"
            }
          ],
          "rawValue": "1.1905",
          "formattedValue": "(  1.2)"
        },
        {
          "operationId": "Mth01_CatVar_ByGrp_n",
          "resultGroups": [
            {
              "groupingId": "AnlsGrouping_02_Trt",
              "groupId": "AnlsGrouping_02_Trt_2"
            },
            {
              "groupingId": "AnlsGrouping_06_Soc",
              "groupValue": "MUSCULOSKELETAL AND CONNECTIVE TISSUE DISORDERS"
            }
          ],
          "rawValue": "7",
          "formattedValue": "7"
        },
        {
          "operationId": "Mth01_CatVar_ByGrp_pct",
          "resultGroups": [
            {
              "groupingId": "AnlsGrouping_02_Trt",
              "groupId": "AnlsGrouping_02_Trt_2"
            },
            {
              "groupingId": "AnlsGrouping_06_Soc",
              "groupValue": "MUSCULOSKELETAL AND CONNECTIVE TISSUE DISORDERS"
            }
          ],
          "rawValue": "8.3333",
          "formattedValue": "(  8.3)"
        },
        {
          "operationId": "Mth01_CatVar_ByGrp_n",
          "resultGroups": [
            {
              "groupingId": "AnlsGrouping_02_Trt",
              "groupId": "AnlsGrouping_02_Trt_2"
            },
            {
              "groupingId": "AnlsGrouping_06_Soc",
              "groupValue": "NEOPLASMS BENIGN, MALIGNANT AND UNSPECIFIED (INCL CYSTS AND POLYPS)"
            }
          ],
          "rawValue": "2",
          "formattedValue": "2"
        },
        {
          "operationId": "Mth01_CatVar_ByGrp_pct",
          "resultGroups": [
            {
              "groupingId": "AnlsGrouping_02_Trt",
              "groupId": "AnlsGrouping_02_Trt_2"
            },
            {
              "groupingId": "AnlsGrouping_06_Soc",
              "groupValue": "NEOPLASMS BENIGN, MALIGNANT AND UNSPECIFIED (INCL CYSTS AND POLYPS)"
            }
          ],
          "rawValue": "2.381",
          "formattedValue": "(  2.4)"
        },
        {
          "operationId": "Mth01_CatVar_ByGrp_n",
          "resultGroups": [
            {
              "groupingId": "AnlsGrouping_02_Trt",
              "groupId": "AnlsGrouping_02_Trt_2"
            },
            {
              "groupingId": "AnlsGrouping_06_Soc",
              "groupValue": "NERVOUS SYSTEM DISORDERS"
            }
          ],
          "rawValue": "20",
          "formattedValue": "20"
        },
        {
          "operationId": "Mth01_CatVar_ByGrp_pct",
          "resultGroups": [
            {
              "groupingId": "AnlsGrouping_02_Trt",
              "groupId": "AnlsGrouping_02_Trt_2"
            },
            {
              "groupingId": "AnlsGrouping_06_Soc",
              "groupValue": "NERVOUS SYSTEM DISORDERS"
            }
          ],
          "rawValue": "23.8095",
          "formattedValue": "( 23.8)"
        },
        {
          "operationId": "Mth01_CatVar_ByGrp_n",
          "resultGroups": [
            {
              "groupingId": "AnlsGrouping_02_Trt",
              "groupId": "AnlsGrouping_02_Trt_2"
            },
            {
              "groupingId": "AnlsGrouping_06_Soc",
              "groupValue": "PSYCHIATRIC DISORDERS"
            }
          ],
          "rawValue": "10",
          "formattedValue": "10"
        },
        {
          "operationId": "Mth01_CatVar_ByGrp_pct",
          "resultGroups": [
            {
              "groupingId": "AnlsGrouping_02_Trt",
              "groupId": "AnlsGrouping_02_Trt_2"
            },
            {
              "groupingId": "AnlsGrouping_06_Soc",
              "groupValue": "PSYCHIATRIC DISORDERS"
            }
          ],
          "rawValue": "11.9048",
          "formattedValue": "( 11.9)"
        },
        {
          "operationId": "Mth01_CatVar_ByGrp_n",
          "resultGroups": [
            {
              "groupingId": "AnlsGrouping_02_Trt",
              "groupId": "AnlsGrouping_02_Trt_2"
            },
            {
              "groupingId": "AnlsGrouping_06_Soc",
              "groupValue": "RENAL AND URINARY DISORDERS"
            }
          ],
          "rawValue": "3",
          "formattedValue": "3"
        },
        {
          "operationId": "Mth01_CatVar_ByGrp_pct",
          "resultGroups": [
            {
              "groupingId": "AnlsGrouping_02_Trt",
              "groupId": "AnlsGrouping_02_Trt_2"
            },
            {
              "groupingId": "AnlsGrouping_06_Soc",
              "groupValue": "RENAL AND URINARY DISORDERS"
            }
          ],
          "rawValue": "3.5714",
          "formattedValue": "(  3.6)"
        },
        {
          "operationId": "Mth01_CatVar_ByGrp_n",
          "resultGroups": [
            {
              "groupingId": "AnlsGrouping_02_Trt",
              "groupId": "AnlsGrouping_02_Trt_2"
            },
            {
              "groupingId": "AnlsGrouping_06_Soc",
              "groupValue": "REPRODUCTIVE SYSTEM AND BREAST DISORDERS"
            }
          ],
          "rawValue": "0",
          "formattedValue": "0"
        },
        {
          "operationId": "Mth01_CatVar_ByGrp_pct",
          "resultGroups": [
            {
              "groupingId": "AnlsGrouping_02_Trt",
              "groupId": "AnlsGrouping_02_Trt_2"
            },
            {
              "groupingId": "AnlsGrouping_06_Soc",
              "groupValue": "REPRODUCTIVE SYSTEM AND BREAST DISORDERS"
            }
          ],
          "rawValue": "0",
          "formattedValue": "(  0.0)"
        },
        {
          "operationId": "Mth01_CatVar_ByGrp_n",
          "resultGroups": [
            {
              "groupingId": "AnlsGrouping_02_Trt",
              "groupId": "AnlsGrouping_02_Trt_2"
            },
            {
              "groupingId": "AnlsGrouping_06_Soc",
              "groupValue": "RESPIRATORY, THORACIC AND MEDIASTINAL DISORDERS"
            }
          ],
          "rawValue": "9",
          "formattedValue": "9"
        },
        {
          "operationId": "Mth01_CatVar_ByGrp_pct",
          "resultGroups": [
            {
              "groupingId": "AnlsGrouping_02_Trt",
              "groupId": "AnlsGrouping_02_Trt_2"
            },
            {
              "groupingId": "AnlsGrouping_06_Soc",
              "groupValue": "RESPIRATORY, THORACIC AND MEDIASTINAL DISORDERS"
            }
          ],
          "rawValue": "10.7143",
          "formattedValue": "( 10.7)"
        },
        {
          "operationId": "Mth01_CatVar_ByGrp_n",
          "resultGroups": [
            {
              "groupingId": "AnlsGrouping_02_Trt",
              "groupId": "AnlsGrouping_02_Trt_2"
            },
            {
              "groupingId": "AnlsGrouping_06_Soc",
              "groupValue": "SKIN AND SUBCUTANEOUS TISSUE DISORDERS"
            }
          ],
          "rawValue": "39",
          "formattedValue": "39"
        },
        {
          "operationId": "Mth01_CatVar_ByGrp_pct",
          "resultGroups": [
            {
              "groupingId": "AnlsGrouping_02_Trt",
              "groupId": "AnlsGrouping_02_Trt_2"
            },
            {
              "groupingId": "AnlsGrouping_06_Soc",
              "groupValue": "SKIN AND SUBCUTANEOUS TISSUE DISORDERS"
            }
          ],
          "rawValue": "46.4286",
          "formattedValue": "( 46.4)"
        },
        {
          "operationId": "Mth01_CatVar_ByGrp_n",
          "resultGroups": [
            {
              "groupingId": "AnlsGrouping_02_Trt",
              "groupId": "AnlsGrouping_02_Trt_2"
            },
            {
              "groupingId": "AnlsGrouping_06_Soc",
              "groupValue": "SOCIAL CIRCUMSTANCES"
            }
          ],
          "rawValue": "0",
          "formattedValue": "0"
        },
        {
          "operationId": "Mth01_CatVar_ByGrp_pct",
          "resultGroups": [
            {
              "groupingId": "AnlsGrouping_02_Trt",
              "groupId": "AnlsGrouping_02_Trt_2"
            },
            {
              "groupingId": "AnlsGrouping_06_Soc",
              "groupValue": "SOCIAL CIRCUMSTANCES"
            }
          ],
          "rawValue": "0",
          "formattedValue": "(  0.0)"
        },
        {
          "operationId": "Mth01_CatVar_ByGrp_n",
          "resultGroups": [
            {
              "groupingId": "AnlsGrouping_02_Trt",
              "groupId": "AnlsGrouping_02_Trt_2"
            },
            {
              "groupingId": "AnlsGrouping_06_Soc",
              "groupValue": "SURGICAL AND MEDICAL PROCEDURES"
            }
          ],
          "rawValue": "1",
          "formattedValue": "1"
        },
        {
          "operationId": "Mth01_CatVar_ByGrp_pct",
          "resultGroups": [
            {
              "groupingId": "AnlsGrouping_02_Trt",
              "groupId": "AnlsGrouping_02_Trt_2"
            },
            {
              "groupingId": "AnlsGrouping_06_Soc",
              "groupValue": "SURGICAL AND MEDICAL PROCEDURES"
            }
          ],
          "rawValue": "1.1905",
          "formattedValue": "(  1.2)"
        },
        {
          "operationId": "Mth01_CatVar_ByGrp_n",
          "resultGroups": [
            {
              "groupingId": "AnlsGrouping_02_Trt",
              "groupId": "AnlsGrouping_02_Trt_2"
            },
            {
              "groupingId": "AnlsGrouping_06_Soc",
              "groupValue": "VASCULAR DISORDERS"
            }
          ],
          "rawValue": "3",
          "formattedValue": "3"
        },
        {
          "operationId": "Mth01_CatVar_ByGrp_pct",
          "resultGroups": [
            {
              "groupingId": "AnlsGrouping_02_Trt",
              "groupId": "AnlsGrouping_02_Trt_2"
            },
            {
              "groupingId": "AnlsGrouping_06_Soc",
              "groupValue": "VASCULAR DISORDERS"
            }
          ],
          "rawValue": "3.5714",
          "formattedValue": "(  3.6)"
        },
        {
          "operationId": "Mth01_CatVar_ByGrp_n",
          "resultGroups": [
            {
              "groupingId": "AnlsGrouping_02_Trt",
              "groupId": "AnlsGrouping_02_Trt_3"
            },
            {
              "groupingId": "AnlsGrouping_06_Soc",
              "groupValue": "CARDIAC DISORDERS"
            }
          ],
          "rawValue": "15",
          "formattedValue": "15"
        },
        {
          "operationId": "Mth01_CatVar_ByGrp_pct",
          "resultGroups": [
            {
              "groupingId": "AnlsGrouping_02_Trt",
              "groupId": "AnlsGrouping_02_Trt_3"
            },
            {
              "groupingId": "AnlsGrouping_06_Soc",
              "groupValue": "CARDIAC DISORDERS"
            }
          ],
          "rawValue": "17.8571",
          "formattedValue": "( 17.9)"
        },
        {
          "operationId": "Mth01_CatVar_ByGrp_n",
          "resultGroups": [
            {
              "groupingId": "AnlsGrouping_02_Trt",
              "groupId": "AnlsGrouping_02_Trt_3"
            },
            {
              "groupingId": "AnlsGrouping_06_Soc",
              "groupValue": "CONGENITAL, FAMILIAL AND GENETIC DISORDERS"
            }
          ],
          "rawValue": "2",
          "formattedValue": "2"
        },
        {
          "operationId": "Mth01_CatVar_ByGrp_pct",
          "resultGroups": [
            {
              "groupingId": "AnlsGrouping_02_Trt",
              "groupId": "AnlsGrouping_02_Trt_3"
            },
            {
              "groupingId": "AnlsGrouping_06_Soc",
              "groupValue": "CONGENITAL, FAMILIAL AND GENETIC DISORDERS"
            }
          ],
          "rawValue": "2.381",
          "formattedValue": "(  2.4)"
        },
        {
          "operationId": "Mth01_CatVar_ByGrp_n",
          "resultGroups": [
            {
              "groupingId": "AnlsGrouping_02_Trt",
              "groupId": "AnlsGrouping_02_Trt_3"
            },
            {
              "groupingId": "AnlsGrouping_06_Soc",
              "groupValue": "EAR AND LABYRINTH DISORDERS"
            }
          ],
          "rawValue": "1",
          "formattedValue": "1"
        },
        {
          "operationId": "Mth01_CatVar_ByGrp_pct",
          "resultGroups": [
            {
              "groupingId": "AnlsGrouping_02_Trt",
              "groupId": "AnlsGrouping_02_Trt_3"
            },
            {
              "groupingId": "AnlsGrouping_06_Soc",
              "groupValue": "EAR AND LABYRINTH DISORDERS"
            }
          ],
          "rawValue": "1.1905",
          "formattedValue": "(  1.2)"
        },
        {
          "operationId": "Mth01_CatVar_ByGrp_n",
          "resultGroups": [
            {
              "groupingId": "AnlsGrouping_02_Trt",
              "groupId": "AnlsGrouping_02_Trt_3"
            },
            {
              "groupingId": "AnlsGrouping_06_Soc",
              "groupValue": "EYE DISORDERS"
            }
          ],
          "rawValue": "1",
          "formattedValue": "1"
        },
        {
          "operationId": "Mth01_CatVar_ByGrp_pct",
          "resultGroups": [
            {
              "groupingId": "AnlsGrouping_02_Trt",
              "groupId": "AnlsGrouping_02_Trt_3"
            },
            {
              "groupingId": "AnlsGrouping_06_Soc",
              "groupValue": "EYE DISORDERS"
            }
          ],
          "rawValue": "1.1905",
          "formattedValue": "(  1.2)"
        },
        {
          "operationId": "Mth01_CatVar_ByGrp_n",
          "resultGroups": [
            {
              "groupingId": "AnlsGrouping_02_Trt",
              "groupId": "AnlsGrouping_02_Trt_3"
            },
            {
              "groupingId": "AnlsGrouping_06_Soc",
              "groupValue": "GASTROINTESTINAL DISORDERS"
            }
          ],
          "rawValue": "20",
          "formattedValue": "20"
        },
        {
          "operationId": "Mth01_CatVar_ByGrp_pct",
          "resultGroups": [
            {
              "groupingId": "AnlsGrouping_02_Trt",
              "groupId": "AnlsGrouping_02_Trt_3"
            },
            {
              "groupingId": "AnlsGrouping_06_Soc",
              "groupValue": "GASTROINTESTINAL DISORDERS"
            }
          ],
          "rawValue": "23.8095",
          "formattedValue": "( 23.8)"
        },
        {
          "operationId": "Mth01_CatVar_ByGrp_n",
          "resultGroups": [
            {
              "groupingId": "AnlsGrouping_02_Trt",
              "groupId": "AnlsGrouping_02_Trt_3"
            },
            {
              "groupingId": "AnlsGrouping_06_Soc",
              "groupValue": "GENERAL DISORDERS AND ADMINISTRATION SITE CONDITIONS"
            }
          ],
          "rawValue": "40",
          "formattedValue": "40"
        },
        {
          "operationId": "Mth01_CatVar_ByGrp_pct",
          "resultGroups": [
            {
              "groupingId": "AnlsGrouping_02_Trt",
              "groupId": "AnlsGrouping_02_Trt_3"
            },
            {
              "groupingId": "AnlsGrouping_06_Soc",
              "groupValue": "GENERAL DISORDERS AND ADMINISTRATION SITE CONDITIONS"
            }
          ],
          "rawValue": "47.619",
          "formattedValue": "( 47.6)"
        },
        {
          "operationId": "Mth01_CatVar_ByGrp_n",
          "resultGroups": [
            {
              "groupingId": "AnlsGrouping_02_Trt",
              "groupId": "AnlsGrouping_02_Trt_3"
            },
            {
              "groupingId": "AnlsGrouping_06_Soc",
              "groupValue": "HEPATOBILIARY DISORDERS"
            }
          ],
          "rawValue": "0",
          "formattedValue": "0"
        },
        {
          "operationId": "Mth01_CatVar_ByGrp_pct",
          "resultGroups": [
            {
              "groupingId": "AnlsGrouping_02_Trt",
              "groupId": "AnlsGrouping_02_Trt_3"
            },
            {
              "groupingId": "AnlsGrouping_06_Soc",
              "groupValue": "HEPATOBILIARY DISORDERS"
            }
          ],
          "rawValue": "0",
          "formattedValue": "(  0.0)"
        },
        {
          "operationId": "Mth01_CatVar_ByGrp_n",
          "resultGroups": [
            {
              "groupingId": "AnlsGrouping_02_Trt",
              "groupId": "AnlsGrouping_02_Trt_3"
            },
            {
              "groupingId": "AnlsGrouping_06_Soc",
              "groupValue": "IMMUNE SYSTEM DISORDERS"
            }
          ],
          "rawValue": "0",
          "formattedValue": "0"
        },
        {
          "operationId": "Mth01_CatVar_ByGrp_pct",
          "resultGroups": [
            {
              "groupingId": "AnlsGrouping_02_Trt",
              "groupId": "AnlsGrouping_02_Trt_3"
            },
            {
              "groupingId": "AnlsGrouping_06_Soc",
              "groupValue": "IMMUNE SYSTEM DISORDERS"
            }
          ],
          "rawValue": "0",
          "formattedValue": "(  0.0)"
        },
        {
          "operationId": "Mth01_CatVar_ByGrp_n",
          "resultGroups": [
            {
              "groupingId": "AnlsGrouping_02_Trt",
              "groupId": "AnlsGrouping_02_Trt_3"
            },
            {
              "groupingId": "AnlsGrouping_06_Soc",
              "groupValue": "INFECTIONS AND INFESTATIONS"
            }
          ],
          "rawValue": "13",
          "formattedValue": "13"
        },
        {
          "operationId": "Mth01_CatVar_ByGrp_pct",
          "resultGroups": [
            {
              "groupingId": "AnlsGrouping_02_Trt",
              "groupId": "AnlsGrouping_02_Trt_3"
            },
            {
              "groupingId": "AnlsGrouping_06_Soc",
              "groupValue": "INFECTIONS AND INFESTATIONS"
            }
          ],
          "rawValue": "15.4762",
          "formattedValue": "( 15.5)"
        },
        {
          "operationId": "Mth01_CatVar_ByGrp_n",
          "resultGroups": [
            {
              "groupingId": "AnlsGrouping_02_Trt",
              "groupId": "AnlsGrouping_02_Trt_3"
            },
            {
              "groupingId": "AnlsGrouping_06_Soc",
              "groupValue": "INJURY, POISONING AND PROCEDURAL COMPLICATIONS"
            }
          ],
          "rawValue": "5",
          "formattedValue": "5"
        },
        {
          "operationId": "Mth01_CatVar_ByGrp_pct",
          "resultGroups": [
            {
              "groupingId": "AnlsGrouping_02_Trt",
              "groupId": "AnlsGrouping_02_Trt_3"
            },
            {
              "groupingId": "AnlsGrouping_06_Soc",
              "groupValue": "INJURY, POISONING AND PROCEDURAL COMPLICATIONS"
            }
          ],
          "rawValue": "5.9524",
          "formattedValue": "(  6.0)"
        },
        {
          "operationId": "Mth01_CatVar_ByGrp_n",
          "resultGroups": [
            {
              "groupingId": "AnlsGrouping_02_Trt",
              "groupId": "AnlsGrouping_02_Trt_3"
            },
            {
              "groupingId": "AnlsGrouping_06_Soc",
              "groupValue": "INVESTIGATIONS"
            }
          ],
          "rawValue": "6",
          "formattedValue": "6"
        },
        {
          "operationId": "Mth01_CatVar_ByGrp_pct",
          "resultGroups": [
            {
              "groupingId": "AnlsGrouping_02_Trt",
              "groupId": "AnlsGrouping_02_Trt_3"
            },
            {
              "groupingId": "AnlsGrouping_06_Soc",
              "groupValue": "INVESTIGATIONS"
            }
          ],
          "rawValue": "7.1429",
          "formattedValue": "(  7.1)"
        },
        {
          "operationId": "Mth01_CatVar_ByGrp_n",
          "resultGroups": [
            {
              "groupingId": "AnlsGrouping_02_Trt",
              "groupId": "AnlsGrouping_02_Trt_3"
            },
            {
              "groupingId": "AnlsGrouping_06_Soc",
              "groupValue": "METABOLISM AND NUTRITION DISORDERS"
            }
          ],
          "rawValue": "2",
          "formattedValue": "2"
        },
        {
          "operationId": "Mth01_CatVar_ByGrp_pct",
          "resultGroups": [
            {
              "groupingId": "AnlsGrouping_02_Trt",
              "groupId": "AnlsGrouping_02_Trt_3"
            },
            {
              "groupingId": "AnlsGrouping_06_Soc",
              "groupValue": "METABOLISM AND NUTRITION DISORDERS"
            }
          ],
          "rawValue": "2.381",
          "formattedValue": "(  2.4)"
        },
        {
          "operationId": "Mth01_CatVar_ByGrp_n",
          "resultGroups": [
            {
              "groupingId": "AnlsGrouping_02_Trt",
              "groupId": "AnlsGrouping_02_Trt_3"
            },
            {
              "groupingId": "AnlsGrouping_06_Soc",
              "groupValue": "MUSCULOSKELETAL AND CONNECTIVE TISSUE DISORDERS"
            }
          ],
          "rawValue": "7",
          "formattedValue": "7"
        },
        {
          "operationId": "Mth01_CatVar_ByGrp_pct",
          "resultGroups": [
            {
              "groupingId": "AnlsGrouping_02_Trt",
              "groupId": "AnlsGrouping_02_Trt_3"
            },
            {
              "groupingId": "AnlsGrouping_06_Soc",
              "groupValue": "MUSCULOSKELETAL AND CONNECTIVE TISSUE DISORDERS"
            }
          ],
          "rawValue": "8.3333",
          "formattedValue": "(  8.3)"
        },
        {
          "operationId": "Mth01_CatVar_ByGrp_n",
          "resultGroups": [
            {
              "groupingId": "AnlsGrouping_02_Trt",
              "groupId": "AnlsGrouping_02_Trt_3"
            },
            {
              "groupingId": "AnlsGrouping_06_Soc",
              "groupValue": "NEOPLASMS BENIGN, MALIGNANT AND UNSPECIFIED (INCL CYSTS AND POLYPS)"
            }
          ],
          "rawValue": "1",
          "formattedValue": "1"
        },
        {
          "operationId": "Mth01_CatVar_ByGrp_pct",
          "resultGroups": [
            {
              "groupingId": "AnlsGrouping_02_Trt",
              "groupId": "AnlsGrouping_02_Trt_3"
            },
            {
              "groupingId": "AnlsGrouping_06_Soc",
              "groupValue": "NEOPLASMS BENIGN, MALIGNANT AND UNSPECIFIED (INCL CYSTS AND POLYPS)"
            }
          ],
          "rawValue": "1.1905",
          "formattedValue": "(  1.2)"
        },
        {
          "operationId": "Mth01_CatVar_ByGrp_n",
          "resultGroups": [
            {
              "groupingId": "AnlsGrouping_02_Trt",
              "groupId": "AnlsGrouping_02_Trt_3"
            },
            {
              "groupingId": "AnlsGrouping_06_Soc",
              "groupValue": "NERVOUS SYSTEM DISORDERS"
            }
          ],
          "rawValue": "25",
          "formattedValue": "25"
        },
        {
          "operationId": "Mth01_CatVar_ByGrp_pct",
          "resultGroups": [
            {
              "groupingId": "AnlsGrouping_02_Trt",
              "groupId": "AnlsGrouping_02_Trt_3"
            },
            {
              "groupingId": "AnlsGrouping_06_Soc",
              "groupValue": "NERVOUS SYSTEM DISORDERS"
            }
          ],
          "rawValue": "29.7619",
          "formattedValue": "( 29.8)"
        },
        {
          "operationId": "Mth01_CatVar_ByGrp_n",
          "resultGroups": [
            {
              "groupingId": "AnlsGrouping_02_Trt",
              "groupId": "AnlsGrouping_02_Trt_3"
            },
            {
              "groupingId": "AnlsGrouping_06_Soc",
              "groupValue": "PSYCHIATRIC DISORDERS"
            }
          ],
          "rawValue": "8",
          "formattedValue": "8"
        },
        {
          "operationId": "Mth01_CatVar_ByGrp_pct",
          "resultGroups": [
            {
              "groupingId": "AnlsGrouping_02_Trt",
              "groupId": "AnlsGrouping_02_Trt_3"
            },
            {
              "groupingId": "AnlsGrouping_06_Soc",
              "groupValue": "PSYCHIATRIC DISORDERS"
            }
          ],
          "rawValue": "9.5238",
          "formattedValue": "(  9.5)"
        },
        {
          "operationId": "Mth01_CatVar_ByGrp_n",
          "resultGroups": [
            {
              "groupingId": "AnlsGrouping_02_Trt",
              "groupId": "AnlsGrouping_02_Trt_3"
            },
            {
              "groupingId": "AnlsGrouping_06_Soc",
              "groupValue": "RENAL AND URINARY DISORDERS"
            }
          ],
          "rawValue": "3",
          "formattedValue": "3"
        },
        {
          "operationId": "Mth01_CatVar_ByGrp_pct",
          "resultGroups": [
            {
              "groupingId": "AnlsGrouping_02_Trt",
              "groupId": "AnlsGrouping_02_Trt_3"
            },
            {
              "groupingId": "AnlsGrouping_06_Soc",
              "groupValue": "RENAL AND URINARY DISORDERS"
            }
          ],
          "rawValue": "3.5714",
          "formattedValue": "(  3.6)"
        },
        {
          "operationId": "Mth01_CatVar_ByGrp_n",
          "resultGroups": [
            {
              "groupingId": "AnlsGrouping_02_Trt",
              "groupId": "AnlsGrouping_02_Trt_3"
            },
            {
              "groupingId": "AnlsGrouping_06_Soc",
              "groupValue": "REPRODUCTIVE SYSTEM AND BREAST DISORDERS"
            }
          ],
          "rawValue": "1",
          "formattedValue": "1"
        },
        {
          "operationId": "Mth01_CatVar_ByGrp_pct",
          "resultGroups": [
            {
              "groupingId": "AnlsGrouping_02_Trt",
              "groupId": "AnlsGrouping_02_Trt_3"
            },
            {
              "groupingId": "AnlsGrouping_06_Soc",
              "groupValue": "REPRODUCTIVE SYSTEM AND BREAST DISORDERS"
            }
          ],
          "rawValue": "1.1905",
          "formattedValue": "(  1.2)"
        },
        {
          "operationId": "Mth01_CatVar_ByGrp_n",
          "resultGroups": [
            {
              "groupingId": "AnlsGrouping_02_Trt",
              "groupId": "AnlsGrouping_02_Trt_3"
            },
            {
              "groupingId": "AnlsGrouping_06_Soc",
              "groupValue": "RESPIRATORY, THORACIC AND MEDIASTINAL DISORDERS"
            }
          ],
          "rawValue": "10",
          "formattedValue": "10"
        },
        {
          "operationId": "Mth01_CatVar_ByGrp_pct",
          "resultGroups": [
            {
              "groupingId": "AnlsGrouping_02_Trt",
              "groupId": "AnlsGrouping_02_Trt_3"
            },
            {
              "groupingId": "AnlsGrouping_06_Soc",
              "groupValue": "RESPIRATORY, THORACIC AND MEDIASTINAL DISORDERS"
            }
          ],
          "rawValue": "11.9048",
          "formattedValue": "( 11.9)"
        },
        {
          "operationId": "Mth01_CatVar_ByGrp_n",
          "resultGroups": [
            {
              "groupingId": "AnlsGrouping_02_Trt",
              "groupId": "AnlsGrouping_02_Trt_3"
            },
            {
              "groupingId": "AnlsGrouping_06_Soc",
              "groupValue": "SKIN AND SUBCUTANEOUS TISSUE DISORDERS"
            }
          ],
          "rawValue": "40",
          "formattedValue": "40"
        },
        {
          "operationId": "Mth01_CatVar_ByGrp_pct",
          "resultGroups": [
            {
              "groupingId": "AnlsGrouping_02_Trt",
              "groupId": "AnlsGrouping_02_Trt_3"
            },
            {
              "groupingId": "AnlsGrouping_06_Soc",
              "groupValue": "SKIN AND SUBCUTANEOUS TISSUE DISORDERS"
            }
          ],
          "rawValue": "47.619",
          "formattedValue": "( 47.6)"
        },
        {
          "operationId": "Mth01_CatVar_ByGrp_n",
          "resultGroups": [
            {
              "groupingId": "AnlsGrouping_02_Trt",
              "groupId": "AnlsGrouping_02_Trt_3"
            },
            {
              "groupingId": "AnlsGrouping_06_Soc",
              "groupValue": "SOCIAL CIRCUMSTANCES"
            }
          ],
          "rawValue": "1",
          "formattedValue": "1"
        },
        {
          "operationId": "Mth01_CatVar_ByGrp_pct",
          "resultGroups": [
            {
              "groupingId": "AnlsGrouping_02_Trt",
              "groupId": "AnlsGrouping_02_Trt_3"
            },
            {
              "groupingId": "AnlsGrouping_06_Soc",
              "groupValue": "SOCIAL CIRCUMSTANCES"
            }
          ],
          "rawValue": "1.1905",
          "formattedValue": "(  1.2)"
        },
        {
          "operationId": "Mth01_CatVar_ByGrp_n",
          "resultGroups": [
            {
              "groupingId": "AnlsGrouping_02_Trt",
              "groupId": "AnlsGrouping_02_Trt_3"
            },
            {
              "groupingId": "AnlsGrouping_06_Soc",
              "groupValue": "SURGICAL AND MEDICAL PROCEDURES"
            }
          ],
          "rawValue": "2",
          "formattedValue": "2"
        },
        {
          "operationId": "Mth01_CatVar_ByGrp_pct",
          "resultGroups": [
            {
              "groupingId": "AnlsGrouping_02_Trt",
              "groupId": "AnlsGrouping_02_Trt_3"
            },
            {
              "groupingId": "AnlsGrouping_06_Soc",
              "groupValue": "SURGICAL AND MEDICAL PROCEDURES"
            }
          ],
          "rawValue": "2.381",
          "formattedValue": "(  2.4)"
        },
        {
          "operationId": "Mth01_CatVar_ByGrp_n",
          "resultGroups": [
            {
              "groupingId": "AnlsGrouping_02_Trt",
              "groupId": "AnlsGrouping_02_Trt_3"
            },
            {
              "groupingId": "AnlsGrouping_06_Soc",
              "groupValue": "VASCULAR DISORDERS"
            }
          ],
          "rawValue": "1",
          "formattedValue": "1"
        },
        {
          "operationId": "Mth01_CatVar_ByGrp_pct",
          "resultGroups": [
            {
              "groupingId": "AnlsGrouping_02_Trt",
              "groupId": "AnlsGrouping_02_Trt_3"
            },
            {
              "groupingId": "AnlsGrouping_06_Soc",
              "groupValue": "VASCULAR DISORDERS"
            }
          ],
          "rawValue": "1.1905",
          "formattedValue": "(  1.2)"
        }
      ]
    },
    {
      "id": "An07.3_SocPt_ByTrt",
      "version": 1,
      "analysisSetId": "AnalysisSet_02_SAF",
      "orderedGroupings": [
        {
          "order": 1,
          "groupingId": "AnlsGrouping_02_Trt"
        },
        {
          "order": 2,
          "groupingId": "AnlsGrouping_06_Soc"
        },
        {
          "order": 3,
          "dataGrouping": {
            "id": "AnlsGrouping_07_Pt",
            "dataDriven": true,
            "label": "Preferred Term",
            "groupingVariable": "AEDECOD"
          }
        }
      ],
      "dataSubsetId": "Dss01_TrtEm",
      "dataset": "ADAE",
      "variable": "AEDECOD",
      "methodId": "Mth01_CatVar_ByGrp",
      "referencedAnalysisOperations": [
        {
          "analysisId": "An07.3_SocPt_ByTrt",
          "referencedOperationId": "Mth01_CatVar_ByGrp_pct_NUM"
        },
        {
          "analysisId": "An01.5_SAF_ByTrt",
          "referencedOperationId": "Mth01_CatVar_ByGrp_pct_DEN"
        }
      ],
      "results": [
        {
          "operationId": "Mth01_CatVar_ByGrp_n",
          "resultGroups": [
            {
              "groupingId": "AnlsGrouping_02_Trt",
              "groupId": "AnlsGrouping_02_Trt_1"
            },
            {
              "groupingId": "AnlsGrouping_06_Soc",
              "groupValue": "CARDIAC DISORDERS"
            },
            {
              "groupingId": "AnlsGrouping_07_Pt",
              "groupValue": "ATRIAL FIBRILLATION"
            }
          ],
          "rawValue": "1",
          "formattedValue": "1"
        },
        {
          "operationId": "Mth01_CatVar_ByGrp_pct",
          "resultGroups": [
            {
              "groupingId": "AnlsGrouping_02_Trt",
              "groupId": "AnlsGrouping_02_Trt_1"
            },
            {
              "groupingId": "AnlsGrouping_06_Soc",
              "groupValue": "CARDIAC DISORDERS"
            },
            {
              "groupingId": "AnlsGrouping_07_Pt",
              "groupValue": "ATRIAL FIBRILLATION"
            }
          ],
          "rawValue": "1.1628",
          "formattedValue": "(  1.2)"
        },
        {
          "operationId": "Mth01_CatVar_ByGrp_n",
          "resultGroups": [
            {
              "groupingId": "AnlsGrouping_02_Trt",
              "groupId": "AnlsGrouping_02_Trt_1"
            },
            {
              "groupingId": "AnlsGrouping_06_Soc",
              "groupValue": "CARDIAC DISORDERS"
            },
            {
              "groupingId": "AnlsGrouping_07_Pt",
              "groupValue": "ATRIAL FLUTTER"
            }
          ],
          "rawValue": "0",
          "formattedValue": "0"
        },
        {
          "operationId": "Mth01_CatVar_ByGrp_pct",
          "resultGroups": [
            {
              "groupingId": "AnlsGrouping_02_Trt",
              "groupId": "AnlsGrouping_02_Trt_1"
            },
            {
              "groupingId": "AnlsGrouping_06_Soc",
              "groupValue": "CARDIAC DISORDERS"
            },
            {
              "groupingId": "AnlsGrouping_07_Pt",
              "groupValue": "ATRIAL FLUTTER"
            }
          ],
          "rawValue": "0",
          "formattedValue": "(  0.0)"
        },
        {
          "operationId": "Mth01_CatVar_ByGrp_n",
          "resultGroups": [
            {
              "groupingId": "AnlsGrouping_02_Trt",
              "groupId": "AnlsGrouping_02_Trt_1"
            },
            {
              "groupingId": "AnlsGrouping_06_Soc",
              "groupValue": "CARDIAC DISORDERS"
            },
            {
              "groupingId": "AnlsGrouping_07_Pt",
              "groupValue": "ATRIAL HYPERTROPHY"
            }
          ],
          "rawValue": "1",
          "formattedValue": "1"
        },
        {
          "operationId": "Mth01_CatVar_ByGrp_pct",
          "resultGroups": [
            {
              "groupingId": "AnlsGrouping_02_Trt",
              "groupId": "AnlsGrouping_02_Trt_1"
            },
            {
              "groupingId": "AnlsGrouping_06_Soc",
              "groupValue": "CARDIAC DISORDERS"
            },
            {
              "groupingId": "AnlsGrouping_07_Pt",
              "groupValue": "ATRIAL HYPERTROPHY"
            }
          ],
          "rawValue": "1.1628",
          "formattedValue": "(  1.2)"
        },
        {
          "operationId": "Mth01_CatVar_ByGrp_n",
          "resultGroups": [
            {
              "groupingId": "AnlsGrouping_02_Trt",
              "groupId": "AnlsGrouping_02_Trt_1"
            },
            {
              "groupingId": "AnlsGrouping_06_Soc",
              "groupValue": "CARDIAC DISORDERS"
            },
            {
              "groupingId": "AnlsGrouping_07_Pt",
              "groupValue": "ATRIOVENTRICULAR BLOCK FIRST DEGREE"
            }
          ],
          "rawValue": "1",
          "formattedValue": "1"
        },
        {
          "operationId": "Mth01_CatVar_ByGrp_pct",
          "resultGroups": [
            {
              "groupingId": "AnlsGrouping_02_Trt",
              "groupId": "AnlsGrouping_02_Trt_1"
            },
            {
              "groupingId": "AnlsGrouping_06_Soc",
              "groupValue": "CARDIAC DISORDERS"
            },
            {
              "groupingId": "AnlsGrouping_07_Pt",
              "groupValue": "ATRIOVENTRICULAR BLOCK FIRST DEGREE"
            }
          ],
          "rawValue": "1.1628",
          "formattedValue": "(  1.2)"
        },
        {
          "operationId": "Mth01_CatVar_ByGrp_n",
          "resultGroups": [
            {
              "groupingId": "AnlsGrouping_02_Trt",
              "groupId": "AnlsGrouping_02_Trt_1"
            },
            {
              "groupingId": "AnlsGrouping_06_Soc",
              "groupValue": "CARDIAC DISORDERS"
            },
            {
              "groupingId": "AnlsGrouping_07_Pt",
              "groupValue": "ATRIOVENTRICULAR BLOCK SECOND DEGREE"
            }
          ],
          "rawValue": "1",
          "formattedValue": "1"
        },
        {
          "operationId": "Mth01_CatVar_ByGrp_pct",
          "resultGroups": [
            {
              "groupingId": "AnlsGrouping_02_Trt",
              "groupId": "AnlsGrouping_02_Trt_1"
            },
            {
              "groupingId": "AnlsGrouping_06_Soc",
              "groupValue": "CARDIAC DISORDERS"
            },
            {
              "groupingId": "AnlsGrouping_07_Pt",
              "groupValue": "ATRIOVENTRICULAR BLOCK SECOND DEGREE"
            }
          ],
          "rawValue": "1.1628",
          "formattedValue": "(  1.2)"
        },
        {
          "operationId": "Mth01_CatVar_ByGrp_n",
          "resultGroups": [
            {
              "groupingId": "AnlsGrouping_02_Trt",
              "groupId": "AnlsGrouping_02_Trt_1"
            },
            {
              "groupingId": "AnlsGrouping_06_Soc",
              "groupValue": "CARDIAC DISORDERS"
            },
            {
              "groupingId": "AnlsGrouping_07_Pt",
              "groupValue": "BRADYCARDIA"
            }
          ],
          "rawValue": "1",
          "formattedValue": "1"
        },
        {
          "operationId": "Mth01_CatVar_ByGrp_pct",
          "resultGroups": [
            {
              "groupingId": "AnlsGrouping_02_Trt",
              "groupId": "AnlsGrouping_02_Trt_1"
            },
            {
              "groupingId": "AnlsGrouping_06_Soc",
              "groupValue": "CARDIAC DISORDERS"
            },
            {
              "groupingId": "AnlsGrouping_07_Pt",
              "groupValue": "BRADYCARDIA"
            }
          ],
          "rawValue": "1.1628",
          "formattedValue": "(  1.2)"
        },
        {
          "operationId": "Mth01_CatVar_ByGrp_n",
          "resultGroups": [
            {
              "groupingId": "AnlsGrouping_02_Trt",
              "groupId": "AnlsGrouping_02_Trt_1"
            },
            {
              "groupingId": "AnlsGrouping_06_Soc",
              "groupValue": "CARDIAC DISORDERS"
            },
            {
              "groupingId": "AnlsGrouping_07_Pt",
              "groupValue": "BUNDLE BRANCH BLOCK LEFT"
            }
          ],
          "rawValue": "1",
          "formattedValue": "1"
        },
        {
          "operationId": "Mth01_CatVar_ByGrp_pct",
          "resultGroups": [
            {
              "groupingId": "AnlsGrouping_02_Trt",
              "groupId": "AnlsGrouping_02_Trt_1"
            },
            {
              "groupingId": "AnlsGrouping_06_Soc",
              "groupValue": "CARDIAC DISORDERS"
            },
            {
              "groupingId": "AnlsGrouping_07_Pt",
              "groupValue": "BUNDLE BRANCH BLOCK LEFT"
            }
          ],
          "rawValue": "1.1628",
          "formattedValue": "(  1.2)"
        },
        {
          "operationId": "Mth01_CatVar_ByGrp_n",
          "resultGroups": [
            {
              "groupingId": "AnlsGrouping_02_Trt",
              "groupId": "AnlsGrouping_02_Trt_1"
            },
            {
              "groupingId": "AnlsGrouping_06_Soc",
              "groupValue": "CARDIAC DISORDERS"
            },
            {
              "groupingId": "AnlsGrouping_07_Pt",
              "groupValue": "BUNDLE BRANCH BLOCK RIGHT"
            }
          ],
          "rawValue": "1",
          "formattedValue": "1"
        },
        {
          "operationId": "Mth01_CatVar_ByGrp_pct",
          "resultGroups": [
            {
              "groupingId": "AnlsGrouping_02_Trt",
              "groupId": "AnlsGrouping_02_Trt_1"
            },
            {
              "groupingId": "AnlsGrouping_06_Soc",
              "groupValue": "CARDIAC DISORDERS"
            },
            {
              "groupingId": "AnlsGrouping_07_Pt",
              "groupValue": "BUNDLE BRANCH BLOCK RIGHT"
            }
          ],
          "rawValue": "1.1628",
          "formattedValue": "(  1.2)"
        },
        {
          "operationId": "Mth01_CatVar_ByGrp_n",
          "resultGroups": [
            {
              "groupingId": "AnlsGrouping_02_Trt",
              "groupId": "AnlsGrouping_02_Trt_1"
            },
            {
              "groupingId": "AnlsGrouping_06_Soc",
              "groupValue": "CARDIAC DISORDERS"
            },
            {
              "groupingId": "AnlsGrouping_07_Pt",
              "groupValue": "CARDIAC DISORDER"
            }
          ],
          "rawValue": "0",
          "formattedValue": "0"
        },
        {
          "operationId": "Mth01_CatVar_ByGrp_pct",
          "resultGroups": [
            {
              "groupingId": "AnlsGrouping_02_Trt",
              "groupId": "AnlsGrouping_02_Trt_1"
            },
            {
              "groupingId": "AnlsGrouping_06_Soc",
              "groupValue": "CARDIAC DISORDERS"
            },
            {
              "groupingId": "AnlsGrouping_07_Pt",
              "groupValue": "CARDIAC DISORDER"
            }
          ],
          "rawValue": "0",
          "formattedValue": "(  0.0)"
        },
        {
          "operationId": "Mth01_CatVar_ByGrp_n",
          "resultGroups": [
            {
              "groupingId": "AnlsGrouping_02_Trt",
              "groupId": "AnlsGrouping_02_Trt_1"
            },
            {
              "groupingId": "AnlsGrouping_06_Soc",
              "groupValue": "CARDIAC DISORDERS"
            },
            {
              "groupingId": "AnlsGrouping_07_Pt",
              "groupValue": "CARDIAC FAILURE CONGESTIVE"
            }
          ],
          "rawValue": "1",
          "formattedValue": "1"
        },
        {
          "operationId": "Mth01_CatVar_ByGrp_pct",
          "resultGroups": [
            {
              "groupingId": "AnlsGrouping_02_Trt",
              "groupId": "AnlsGrouping_02_Trt_1"
            },
            {
              "groupingId": "AnlsGrouping_06_Soc",
              "groupValue": "CARDIAC DISORDERS"
            },
            {
              "groupingId": "AnlsGrouping_07_Pt",
              "groupValue": "CARDIAC FAILURE CONGESTIVE"
            }
          ],
          "rawValue": "1.1628",
          "formattedValue": "(  1.2)"
        },
        {
          "operationId": "Mth01_CatVar_ByGrp_n",
          "resultGroups": [
            {
              "groupingId": "AnlsGrouping_02_Trt",
              "groupId": "AnlsGrouping_02_Trt_1"
            },
            {
              "groupingId": "AnlsGrouping_06_Soc",
              "groupValue": "CARDIAC DISORDERS"
            },
            {
              "groupingId": "AnlsGrouping_07_Pt",
              "groupValue": "MYOCARDIAL INFARCTION"
            }
          ],
          "rawValue": "4",
          "formattedValue": "4"
        },
        {
          "operationId": "Mth01_CatVar_ByGrp_pct",
          "resultGroups": [
            {
              "groupingId": "AnlsGrouping_02_Trt",
              "groupId": "AnlsGrouping_02_Trt_1"
            },
            {
              "groupingId": "AnlsGrouping_06_Soc",
              "groupValue": "CARDIAC DISORDERS"
            },
            {
              "groupingId": "AnlsGrouping_07_Pt",
              "groupValue": "MYOCARDIAL INFARCTION"
            }
          ],
          "rawValue": "4.6512",
          "formattedValue": "(  4.7)"
        },
        {
          "operationId": "Mth01_CatVar_ByGrp_n",
          "resultGroups": [
            {
              "groupingId": "AnlsGrouping_02_Trt",
              "groupId": "AnlsGrouping_02_Trt_1"
            },
            {
              "groupingId": "AnlsGrouping_06_Soc",
              "groupValue": "CARDIAC DISORDERS"
            },
            {
              "groupingId": "AnlsGrouping_07_Pt",
              "groupValue": "PALPITATIONS"
            }
          ],
          "rawValue": "0",
          "formattedValue": "0"
        },
        {
          "operationId": "Mth01_CatVar_ByGrp_pct",
          "resultGroups": [
            {
              "groupingId": "AnlsGrouping_02_Trt",
              "groupId": "AnlsGrouping_02_Trt_1"
            },
            {
              "groupingId": "AnlsGrouping_06_Soc",
              "groupValue": "CARDIAC DISORDERS"
            },
            {
              "groupingId": "AnlsGrouping_07_Pt",
              "groupValue": "PALPITATIONS"
            }
          ],
          "rawValue": "0",
          "formattedValue": "(  0.0)"
        },
        {
          "operationId": "Mth01_CatVar_ByGrp_n",
          "resultGroups": [
            {
              "groupingId": "AnlsGrouping_02_Trt",
              "groupId": "AnlsGrouping_02_Trt_1"
            },
            {
              "groupingId": "AnlsGrouping_06_Soc",
              "groupValue": "CARDIAC DISORDERS"
            },
            {
              "groupingId": "AnlsGrouping_07_Pt",
              "groupValue": "SINUS ARRHYTHMIA"
            }
          ],
          "rawValue": "1",
          "formattedValue": "1"
        },
        {
          "operationId": "Mth01_CatVar_ByGrp_pct",
          "resultGroups": [
            {
              "groupingId": "AnlsGrouping_02_Trt",
              "groupId": "AnlsGrouping_02_Trt_1"
            },
            {
              "groupingId": "AnlsGrouping_06_Soc",
              "groupValue": "CARDIAC DISORDERS"
            },
            {
              "groupingId": "AnlsGrouping_07_Pt",
              "groupValue": "SINUS ARRHYTHMIA"
            }
          ],
          "rawValue": "1.1628",
          "formattedValue": "(  1.2)"
        },
        {
          "operationId": "Mth01_CatVar_ByGrp_n",
          "resultGroups": [
            {
              "groupingId": "AnlsGrouping_02_Trt",
              "groupId": "AnlsGrouping_02_Trt_1"
            },
            {
              "groupingId": "AnlsGrouping_06_Soc",
              "groupValue": "CARDIAC DISORDERS"
            },
            {
              "groupingId": "AnlsGrouping_07_Pt",
              "groupValue": "SINUS BRADYCARDIA"
            }
          ],
          "rawValue": "2",
          "formattedValue": "2"
        },
        {
          "operationId": "Mth01_CatVar_ByGrp_pct",
          "resultGroups": [
            {
              "groupingId": "AnlsGrouping_02_Trt",
              "groupId": "AnlsGrouping_02_Trt_1"
            },
            {
              "groupingId": "AnlsGrouping_06_Soc",
              "groupValue": "CARDIAC DISORDERS"
            },
            {
              "groupingId": "AnlsGrouping_07_Pt",
              "groupValue": "SINUS BRADYCARDIA"
            }
          ],
          "rawValue": "2.3256",
          "formattedValue": "(  2.3)"
        },
        {
          "operationId": "Mth01_CatVar_ByGrp_n",
          "resultGroups": [
            {
              "groupingId": "AnlsGrouping_02_Trt",
              "groupId": "AnlsGrouping_02_Trt_1"
            },
            {
              "groupingId": "AnlsGrouping_06_Soc",
              "groupValue": "CARDIAC DISORDERS"
            },
            {
              "groupingId": "AnlsGrouping_07_Pt",
              "groupValue": "SUPRAVENTRICULAR EXTRASYSTOLES"
            }
          ],
          "rawValue": "1",
          "formattedValue": "1"
        },
        {
          "operationId": "Mth01_CatVar_ByGrp_pct",
          "resultGroups": [
            {
              "groupingId": "AnlsGrouping_02_Trt",
              "groupId": "AnlsGrouping_02_Trt_1"
            },
            {
              "groupingId": "AnlsGrouping_06_Soc",
              "groupValue": "CARDIAC DISORDERS"
            },
            {
              "groupingId": "AnlsGrouping_07_Pt",
              "groupValue": "SUPRAVENTRICULAR EXTRASYSTOLES"
            }
          ],
          "rawValue": "1.1628",
          "formattedValue": "(  1.2)"
        },
        {
          "operationId": "Mth01_CatVar_ByGrp_n",
          "resultGroups": [
            {
              "groupingId": "AnlsGrouping_02_Trt",
              "groupId": "AnlsGrouping_02_Trt_1"
            },
            {
              "groupingId": "AnlsGrouping_06_Soc",
              "groupValue": "CARDIAC DISORDERS"
            },
            {
              "groupingId": "AnlsGrouping_07_Pt",
              "groupValue": "SUPRAVENTRICULAR TACHYCARDIA"
            }
          ],
          "rawValue": "0",
          "formattedValue": "0"
        },
        {
          "operationId": "Mth01_CatVar_ByGrp_pct",
          "resultGroups": [
            {
              "groupingId": "AnlsGrouping_02_Trt",
              "groupId": "AnlsGrouping_02_Trt_1"
            },
            {
              "groupingId": "AnlsGrouping_06_Soc",
              "groupValue": "CARDIAC DISORDERS"
            },
            {
              "groupingId": "AnlsGrouping_07_Pt",
              "groupValue": "SUPRAVENTRICULAR TACHYCARDIA"
            }
          ],
          "rawValue": "0",
          "formattedValue": "(  0.0)"
        },
        {
          "operationId": "Mth01_CatVar_ByGrp_n",
          "resultGroups": [
            {
              "groupingId": "AnlsGrouping_02_Trt",
              "groupId": "AnlsGrouping_02_Trt_1"
            },
            {
              "groupingId": "AnlsGrouping_06_Soc",
              "groupValue": "CARDIAC DISORDERS"
            },
            {
              "groupingId": "AnlsGrouping_07_Pt",
              "groupValue": "TACHYCARDIA"
            }
          ],
          "rawValue": "1",
          "formattedValue": "1"
        },
        {
          "operationId": "Mth01_CatVar_ByGrp_pct",
          "resultGroups": [
            {
              "groupingId": "AnlsGrouping_02_Trt",
              "groupId": "AnlsGrouping_02_Trt_1"
            },
            {
              "groupingId": "AnlsGrouping_06_Soc",
              "groupValue": "CARDIAC DISORDERS"
            },
            {
              "groupingId": "AnlsGrouping_07_Pt",
              "groupValue": "TACHYCARDIA"
            }
          ],
          "rawValue": "1.1628",
          "formattedValue": "(  1.2)"
        },
        {
          "operationId": "Mth01_CatVar_ByGrp_n",
          "resultGroups": [
            {
              "groupingId": "AnlsGrouping_02_Trt",
              "groupId": "AnlsGrouping_02_Trt_1"
            },
            {
              "groupingId": "AnlsGrouping_06_Soc",
              "groupValue": "CARDIAC DISORDERS"
            },
            {
              "groupingId": "AnlsGrouping_07_Pt",
              "groupValue": "VENTRICULAR EXTRASYSTOLES"
            }
          ],
          "rawValue": "0",
          "formattedValue": "0"
        },
        {
          "operationId": "Mth01_CatVar_ByGrp_pct",
          "resultGroups": [
            {
              "groupingId": "AnlsGrouping_02_Trt",
              "groupId": "AnlsGrouping_02_Trt_1"
            },
            {
              "groupingId": "AnlsGrouping_06_Soc",
              "groupValue": "CARDIAC DISORDERS"
            },
            {
              "groupingId": "AnlsGrouping_07_Pt",
              "groupValue": "VENTRICULAR EXTRASYSTOLES"
            }
          ],
          "rawValue": "0",
          "formattedValue": "(  0.0)"
        },
        {
          "operationId": "Mth01_CatVar_ByGrp_n",
          "resultGroups": [
            {
              "groupingId": "AnlsGrouping_02_Trt",
              "groupId": "AnlsGrouping_02_Trt_1"
            },
            {
              "groupingId": "AnlsGrouping_06_Soc",
              "groupValue": "CARDIAC DISORDERS"
            },
            {
              "groupingId": "AnlsGrouping_07_Pt",
              "groupValue": "VENTRICULAR HYPERTROPHY"
            }
          ],
          "rawValue": "1",
          "formattedValue": "1"
        },
        {
          "operationId": "Mth01_CatVar_ByGrp_pct",
          "resultGroups": [
            {
              "groupingId": "AnlsGrouping_02_Trt",
              "groupId": "AnlsGrouping_02_Trt_1"
            },
            {
              "groupingId": "AnlsGrouping_06_Soc",
              "groupValue": "CARDIAC DISORDERS"
            },
            {
              "groupingId": "AnlsGrouping_07_Pt",
              "groupValue": "VENTRICULAR HYPERTROPHY"
            }
          ],
          "rawValue": "1.1628",
          "formattedValue": "(  1.2)"
        },
        {
          "operationId": "Mth01_CatVar_ByGrp_n",
          "resultGroups": [
            {
              "groupingId": "AnlsGrouping_02_Trt",
              "groupId": "AnlsGrouping_02_Trt_1"
            },
            {
              "groupingId": "AnlsGrouping_06_Soc",
              "groupValue": "CARDIAC DISORDERS"
            },
            {
              "groupingId": "AnlsGrouping_07_Pt",
              "groupValue": "WOLFF-PARKINSON-WHITE SYNDROME"
            }
          ],
          "rawValue": "0",
          "formattedValue": "0"
        },
        {
          "operationId": "Mth01_CatVar_ByGrp_pct",
          "resultGroups": [
            {
              "groupingId": "AnlsGrouping_02_Trt",
              "groupId": "AnlsGrouping_02_Trt_1"
            },
            {
              "groupingId": "AnlsGrouping_06_Soc",
              "groupValue": "CARDIAC DISORDERS"
            },
            {
              "groupingId": "AnlsGrouping_07_Pt",
              "groupValue": "WOLFF-PARKINSON-WHITE SYNDROME"
            }
          ],
          "rawValue": "0",
          "formattedValue": "(  0.0)"
        },
        {
          "operationId": "Mth01_CatVar_ByGrp_n",
          "resultGroups": [
            {
              "groupingId": "AnlsGrouping_02_Trt",
              "groupId": "AnlsGrouping_02_Trt_1"
            },
            {
              "groupingId": "AnlsGrouping_06_Soc",
              "groupValue": "CONGENITAL, FAMILIAL AND GENETIC DISORDERS"
            },
            {
              "groupingId": "AnlsGrouping_07_Pt",
              "groupValue": "VENTRICULAR SEPTAL DEFECT"
            }
          ],
          "rawValue": "0",
          "formattedValue": "0"
        },
        {
          "operationId": "Mth01_CatVar_ByGrp_pct",
          "resultGroups": [
            {
              "groupingId": "AnlsGrouping_02_Trt",
              "groupId": "AnlsGrouping_02_Trt_1"
            },
            {
              "groupingId": "AnlsGrouping_06_Soc",
              "groupValue": "CONGENITAL, FAMILIAL AND GENETIC DISORDERS"
            },
            {
              "groupingId": "AnlsGrouping_07_Pt",
              "groupValue": "VENTRICULAR SEPTAL DEFECT"
            }
          ],
          "rawValue": "0",
          "formattedValue": "(  0.0)"
        },
        {
          "operationId": "Mth01_CatVar_ByGrp_n",
          "resultGroups": [
            {
              "groupingId": "AnlsGrouping_02_Trt",
              "groupId": "AnlsGrouping_02_Trt_1"
            },
            {
              "groupingId": "AnlsGrouping_06_Soc",
              "groupValue": "EAR AND LABYRINTH DISORDERS"
            },
            {
              "groupingId": "AnlsGrouping_07_Pt",
              "groupValue": "CERUMEN IMPACTION"
            }
          ],
          "rawValue": "0",
          "formattedValue": "0"
        },
        {
          "operationId": "Mth01_CatVar_ByGrp_pct",
          "resultGroups": [
            {
              "groupingId": "AnlsGrouping_02_Trt",
              "groupId": "AnlsGrouping_02_Trt_1"
            },
            {
              "groupingId": "AnlsGrouping_06_Soc",
              "groupValue": "EAR AND LABYRINTH DISORDERS"
            },
            {
              "groupingId": "AnlsGrouping_07_Pt",
              "groupValue": "CERUMEN IMPACTION"
            }
          ],
          "rawValue": "0",
          "formattedValue": "(  0.0)"
        },
        {
          "operationId": "Mth01_CatVar_ByGrp_n",
          "resultGroups": [
            {
              "groupingId": "AnlsGrouping_02_Trt",
              "groupId": "AnlsGrouping_02_Trt_1"
            },
            {
              "groupingId": "AnlsGrouping_06_Soc",
              "groupValue": "EAR AND LABYRINTH DISORDERS"
            },
            {
              "groupingId": "AnlsGrouping_07_Pt",
              "groupValue": "EAR PAIN"
            }
          ],
          "rawValue": "1",
          "formattedValue": "1"
        },
        {
          "operationId": "Mth01_CatVar_ByGrp_pct",
          "resultGroups": [
            {
              "groupingId": "AnlsGrouping_02_Trt",
              "groupId": "AnlsGrouping_02_Trt_1"
            },
            {
              "groupingId": "AnlsGrouping_06_Soc",
              "groupValue": "EAR AND LABYRINTH DISORDERS"
            },
            {
              "groupingId": "AnlsGrouping_07_Pt",
              "groupValue": "EAR PAIN"
            }
          ],
          "rawValue": "1.1628",
          "formattedValue": "(  1.2)"
        },
        {
          "operationId": "Mth01_CatVar_ByGrp_n",
          "resultGroups": [
            {
              "groupingId": "AnlsGrouping_02_Trt",
              "groupId": "AnlsGrouping_02_Trt_1"
            },
            {
              "groupingId": "AnlsGrouping_06_Soc",
              "groupValue": "EAR AND LABYRINTH DISORDERS"
            },
            {
              "groupingId": "AnlsGrouping_07_Pt",
              "groupValue": "VERTIGO"
            }
          ],
          "rawValue": "0",
          "formattedValue": "0"
        },
        {
          "operationId": "Mth01_CatVar_ByGrp_pct",
          "resultGroups": [
            {
              "groupingId": "AnlsGrouping_02_Trt",
              "groupId": "AnlsGrouping_02_Trt_1"
            },
            {
              "groupingId": "AnlsGrouping_06_Soc",
              "groupValue": "EAR AND LABYRINTH DISORDERS"
            },
            {
              "groupingId": "AnlsGrouping_07_Pt",
              "groupValue": "VERTIGO"
            }
          ],
          "rawValue": "0",
          "formattedValue": "(  0.0)"
        },
        {
          "operationId": "Mth01_CatVar_ByGrp_n",
          "resultGroups": [
            {
              "groupingId": "AnlsGrouping_02_Trt",
              "groupId": "AnlsGrouping_02_Trt_1"
            },
            {
              "groupingId": "AnlsGrouping_06_Soc",
              "groupValue": "EYE DISORDERS"
            },
            {
              "groupingId": "AnlsGrouping_07_Pt",
              "groupValue": "CONJUNCTIVAL HAEMORRHAGE"
            }
          ],
          "rawValue": "0",
          "formattedValue": "0"
        },
        {
          "operationId": "Mth01_CatVar_ByGrp_pct",
          "resultGroups": [
            {
              "groupingId": "AnlsGrouping_02_Trt",
              "groupId": "AnlsGrouping_02_Trt_1"
            },
            {
              "groupingId": "AnlsGrouping_06_Soc",
              "groupValue": "EYE DISORDERS"
            },
            {
              "groupingId": "AnlsGrouping_07_Pt",
              "groupValue": "CONJUNCTIVAL HAEMORRHAGE"
            }
          ],
          "rawValue": "0",
          "formattedValue": "(  0.0)"
        },
        {
          "operationId": "Mth01_CatVar_ByGrp_n",
          "resultGroups": [
            {
              "groupingId": "AnlsGrouping_02_Trt",
              "groupId": "AnlsGrouping_02_Trt_1"
            },
            {
              "groupingId": "AnlsGrouping_06_Soc",
              "groupValue": "EYE DISORDERS"
            },
            {
              "groupingId": "AnlsGrouping_07_Pt",
              "groupValue": "CONJUNCTIVITIS"
            }
          ],
          "rawValue": "1",
          "formattedValue": "1"
        },
        {
          "operationId": "Mth01_CatVar_ByGrp_pct",
          "resultGroups": [
            {
              "groupingId": "AnlsGrouping_02_Trt",
              "groupId": "AnlsGrouping_02_Trt_1"
            },
            {
              "groupingId": "AnlsGrouping_06_Soc",
              "groupValue": "EYE DISORDERS"
            },
            {
              "groupingId": "AnlsGrouping_07_Pt",
              "groupValue": "CONJUNCTIVITIS"
            }
          ],
          "rawValue": "1.1628",
          "formattedValue": "(  1.2)"
        },
        {
          "operationId": "Mth01_CatVar_ByGrp_n",
          "resultGroups": [
            {
              "groupingId": "AnlsGrouping_02_Trt",
              "groupId": "AnlsGrouping_02_Trt_1"
            },
            {
              "groupingId": "AnlsGrouping_06_Soc",
              "groupValue": "EYE DISORDERS"
            },
            {
              "groupingId": "AnlsGrouping_07_Pt",
              "groupValue": "EYE ALLERGY"
            }
          ],
          "rawValue": "1",
          "formattedValue": "1"
        },
        {
          "operationId": "Mth01_CatVar_ByGrp_pct",
          "resultGroups": [
            {
              "groupingId": "AnlsGrouping_02_Trt",
              "groupId": "AnlsGrouping_02_Trt_1"
            },
            {
              "groupingId": "AnlsGrouping_06_Soc",
              "groupValue": "EYE DISORDERS"
            },
            {
              "groupingId": "AnlsGrouping_07_Pt",
              "groupValue": "EYE ALLERGY"
            }
          ],
          "rawValue": "1.1628",
          "formattedValue": "(  1.2)"
        },
        {
          "operationId": "Mth01_CatVar_ByGrp_n",
          "resultGroups": [
            {
              "groupingId": "AnlsGrouping_02_Trt",
              "groupId": "AnlsGrouping_02_Trt_1"
            },
            {
              "groupingId": "AnlsGrouping_06_Soc",
              "groupValue": "EYE DISORDERS"
            },
            {
              "groupingId": "AnlsGrouping_07_Pt",
              "groupValue": "EYE PRURITUS"
            }
          ],
          "rawValue": "1",
          "formattedValue": "1"
        },
        {
          "operationId": "Mth01_CatVar_ByGrp_pct",
          "resultGroups": [
            {
              "groupingId": "AnlsGrouping_02_Trt",
              "groupId": "AnlsGrouping_02_Trt_1"
            },
            {
              "groupingId": "AnlsGrouping_06_Soc",
              "groupValue": "EYE DISORDERS"
            },
            {
              "groupingId": "AnlsGrouping_07_Pt",
              "groupValue": "EYE PRURITUS"
            }
          ],
          "rawValue": "1.1628",
          "formattedValue": "(  1.2)"
        },
        {
          "operationId": "Mth01_CatVar_ByGrp_n",
          "resultGroups": [
            {
              "groupingId": "AnlsGrouping_02_Trt",
              "groupId": "AnlsGrouping_02_Trt_1"
            },
            {
              "groupingId": "AnlsGrouping_06_Soc",
              "groupValue": "EYE DISORDERS"
            },
            {
              "groupingId": "AnlsGrouping_07_Pt",
              "groupValue": "EYE SWELLING"
            }
          ],
          "rawValue": "1",
          "formattedValue": "1"
        },
        {
          "operationId": "Mth01_CatVar_ByGrp_pct",
          "resultGroups": [
            {
              "groupingId": "AnlsGrouping_02_Trt",
              "groupId": "AnlsGrouping_02_Trt_1"
            },
            {
              "groupingId": "AnlsGrouping_06_Soc",
              "groupValue": "EYE DISORDERS"
            },
            {
              "groupingId": "AnlsGrouping_07_Pt",
              "groupValue": "EYE SWELLING"
            }
          ],
          "rawValue": "1.1628",
          "formattedValue": "(  1.2)"
        },
        {
          "operationId": "Mth01_CatVar_ByGrp_n",
          "resultGroups": [
            {
              "groupingId": "AnlsGrouping_02_Trt",
              "groupId": "AnlsGrouping_02_Trt_1"
            },
            {
              "groupingId": "AnlsGrouping_06_Soc",
              "groupValue": "EYE DISORDERS"
            },
            {
              "groupingId": "AnlsGrouping_07_Pt",
              "groupValue": "VISION BLURRED"
            }
          ],
          "rawValue": "0",
          "formattedValue": "0"
        },
        {
          "operationId": "Mth01_CatVar_ByGrp_pct",
          "resultGroups": [
            {
              "groupingId": "AnlsGrouping_02_Trt",
              "groupId": "AnlsGrouping_02_Trt_1"
            },
            {
              "groupingId": "AnlsGrouping_06_Soc",
              "groupValue": "EYE DISORDERS"
            },
            {
              "groupingId": "AnlsGrouping_07_Pt",
              "groupValue": "VISION BLURRED"
            }
          ],
          "rawValue": "0",
          "formattedValue": "(  0.0)"
        },
        {
          "operationId": "Mth01_CatVar_ByGrp_n",
          "resultGroups": [
            {
              "groupingId": "AnlsGrouping_02_Trt",
              "groupId": "AnlsGrouping_02_Trt_1"
            },
            {
              "groupingId": "AnlsGrouping_06_Soc",
              "groupValue": "GASTROINTESTINAL DISORDERS"
            },
            {
              "groupingId": "AnlsGrouping_07_Pt",
              "groupValue": "ABDOMINAL DISCOMFORT"
            }
          ],
          "rawValue": "0",
          "formattedValue": "0"
        },
        {
          "operationId": "Mth01_CatVar_ByGrp_pct",
          "resultGroups": [
            {
              "groupingId": "AnlsGrouping_02_Trt",
              "groupId": "AnlsGrouping_02_Trt_1"
            },
            {
              "groupingId": "AnlsGrouping_06_Soc",
              "groupValue": "GASTROINTESTINAL DISORDERS"
            },
            {
              "groupingId": "AnlsGrouping_07_Pt",
              "groupValue": "ABDOMINAL DISCOMFORT"
            }
          ],
          "rawValue": "0",
          "formattedValue": "(  0.0)"
        },
        {
          "operationId": "Mth01_CatVar_ByGrp_n",
          "resultGroups": [
            {
              "groupingId": "AnlsGrouping_02_Trt",
              "groupId": "AnlsGrouping_02_Trt_1"
            },
            {
              "groupingId": "AnlsGrouping_06_Soc",
              "groupValue": "GASTROINTESTINAL DISORDERS"
            },
            {
              "groupingId": "AnlsGrouping_07_Pt",
              "groupValue": "ABDOMINAL PAIN"
            }
          ],
          "rawValue": "1",
          "formattedValue": "1"
        },
        {
          "operationId": "Mth01_CatVar_ByGrp_pct",
          "resultGroups": [
            {
              "groupingId": "AnlsGrouping_02_Trt",
              "groupId": "AnlsGrouping_02_Trt_1"
            },
            {
              "groupingId": "AnlsGrouping_06_Soc",
              "groupValue": "GASTROINTESTINAL DISORDERS"
            },
            {
              "groupingId": "AnlsGrouping_07_Pt",
              "groupValue": "ABDOMINAL PAIN"
            }
          ],
          "rawValue": "1.1628",
          "formattedValue": "(  1.2)"
        },
        {
          "operationId": "Mth01_CatVar_ByGrp_n",
          "resultGroups": [
            {
              "groupingId": "AnlsGrouping_02_Trt",
              "groupId": "AnlsGrouping_02_Trt_1"
            },
            {
              "groupingId": "AnlsGrouping_06_Soc",
              "groupValue": "GASTROINTESTINAL DISORDERS"
            },
            {
              "groupingId": "AnlsGrouping_07_Pt",
              "groupValue": "CONSTIPATION"
            }
          ],
          "rawValue": "1",
          "formattedValue": "1"
        },
        {
          "operationId": "Mth01_CatVar_ByGrp_pct",
          "resultGroups": [
            {
              "groupingId": "AnlsGrouping_02_Trt",
              "groupId": "AnlsGrouping_02_Trt_1"
            },
            {
              "groupingId": "AnlsGrouping_06_Soc",
              "groupValue": "GASTROINTESTINAL DISORDERS"
            },
            {
              "groupingId": "AnlsGrouping_07_Pt",
              "groupValue": "CONSTIPATION"
            }
          ],
          "rawValue": "1.1628",
          "formattedValue": "(  1.2)"
        },
        {
          "operationId": "Mth01_CatVar_ByGrp_n",
          "resultGroups": [
            {
              "groupingId": "AnlsGrouping_02_Trt",
              "groupId": "AnlsGrouping_02_Trt_1"
            },
            {
              "groupingId": "AnlsGrouping_06_Soc",
              "groupValue": "GASTROINTESTINAL DISORDERS"
            },
            {
              "groupingId": "AnlsGrouping_07_Pt",
              "groupValue": "DIARRHOEA"
            }
          ],
          "rawValue": "9",
          "formattedValue": "9"
        },
        {
          "operationId": "Mth01_CatVar_ByGrp_pct",
          "resultGroups": [
            {
              "groupingId": "AnlsGrouping_02_Trt",
              "groupId": "AnlsGrouping_02_Trt_1"
            },
            {
              "groupingId": "AnlsGrouping_06_Soc",
              "groupValue": "GASTROINTESTINAL DISORDERS"
            },
            {
              "groupingId": "AnlsGrouping_07_Pt",
              "groupValue": "DIARRHOEA"
            }
          ],
          "rawValue": "10.4651",
          "formattedValue": "( 10.5)"
        },
        {
          "operationId": "Mth01_CatVar_ByGrp_n",
          "resultGroups": [
            {
              "groupingId": "AnlsGrouping_02_Trt",
              "groupId": "AnlsGrouping_02_Trt_1"
            },
            {
              "groupingId": "AnlsGrouping_06_Soc",
              "groupValue": "GASTROINTESTINAL DISORDERS"
            },
            {
              "groupingId": "AnlsGrouping_07_Pt",
              "groupValue": "DYSPEPSIA"
            }
          ],
          "rawValue": "1",
          "formattedValue": "1"
        },
        {
          "operationId": "Mth01_CatVar_ByGrp_pct",
          "resultGroups": [
            {
              "groupingId": "AnlsGrouping_02_Trt",
              "groupId": "AnlsGrouping_02_Trt_1"
            },
            {
              "groupingId": "AnlsGrouping_06_Soc",
              "groupValue": "GASTROINTESTINAL DISORDERS"
            },
            {
              "groupingId": "AnlsGrouping_07_Pt",
              "groupValue": "DYSPEPSIA"
            }
          ],
          "rawValue": "1.1628",
          "formattedValue": "(  1.2)"
        },
        {
          "operationId": "Mth01_CatVar_ByGrp_n",
          "resultGroups": [
            {
              "groupingId": "AnlsGrouping_02_Trt",
              "groupId": "AnlsGrouping_02_Trt_1"
            },
            {
              "groupingId": "AnlsGrouping_06_Soc",
              "groupValue": "GASTROINTESTINAL DISORDERS"
            },
            {
              "groupingId": "AnlsGrouping_07_Pt",
              "groupValue": "DYSPHAGIA"
            }
          ],
          "rawValue": "0",
          "formattedValue": "0"
        },
        {
          "operationId": "Mth01_CatVar_ByGrp_pct",
          "resultGroups": [
            {
              "groupingId": "AnlsGrouping_02_Trt",
              "groupId": "AnlsGrouping_02_Trt_1"
            },
            {
              "groupingId": "AnlsGrouping_06_Soc",
              "groupValue": "GASTROINTESTINAL DISORDERS"
            },
            {
              "groupingId": "AnlsGrouping_07_Pt",
              "groupValue": "DYSPHAGIA"
            }
          ],
          "rawValue": "0",
          "formattedValue": "(  0.0)"
        },
        {
          "operationId": "Mth01_CatVar_ByGrp_n",
          "resultGroups": [
            {
              "groupingId": "AnlsGrouping_02_Trt",
              "groupId": "AnlsGrouping_02_Trt_1"
            },
            {
              "groupingId": "AnlsGrouping_06_Soc",
              "groupValue": "GASTROINTESTINAL DISORDERS"
            },
            {
              "groupingId": "AnlsGrouping_07_Pt",
              "groupValue": "FLATULENCE"
            }
          ],
          "rawValue": "1",
          "formattedValue": "1"
        },
        {
          "operationId": "Mth01_CatVar_ByGrp_pct",
          "resultGroups": [
            {
              "groupingId": "AnlsGrouping_02_Trt",
              "groupId": "AnlsGrouping_02_Trt_1"
            },
            {
              "groupingId": "AnlsGrouping_06_Soc",
              "groupValue": "GASTROINTESTINAL DISORDERS"
            },
            {
              "groupingId": "AnlsGrouping_07_Pt",
              "groupValue": "FLATULENCE"
            }
          ],
          "rawValue": "1.1628",
          "formattedValue": "(  1.2)"
        },
        {
          "operationId": "Mth01_CatVar_ByGrp_n",
          "resultGroups": [
            {
              "groupingId": "AnlsGrouping_02_Trt",
              "groupId": "AnlsGrouping_02_Trt_1"
            },
            {
              "groupingId": "AnlsGrouping_06_Soc",
              "groupValue": "GASTROINTESTINAL DISORDERS"
            },
            {
              "groupingId": "AnlsGrouping_07_Pt",
              "groupValue": "GASTROINTESTINAL HAEMORRHAGE"
            }
          ],
          "rawValue": "0",
          "formattedValue": "0"
        },
        {
          "operationId": "Mth01_CatVar_ByGrp_pct",
          "resultGroups": [
            {
              "groupingId": "AnlsGrouping_02_Trt",
              "groupId": "AnlsGrouping_02_Trt_1"
            },
            {
              "groupingId": "AnlsGrouping_06_Soc",
              "groupValue": "GASTROINTESTINAL DISORDERS"
            },
            {
              "groupingId": "AnlsGrouping_07_Pt",
              "groupValue": "GASTROINTESTINAL HAEMORRHAGE"
            }
          ],
          "rawValue": "0",
          "formattedValue": "(  0.0)"
        },
        {
          "operationId": "Mth01_CatVar_ByGrp_n",
          "resultGroups": [
            {
              "groupingId": "AnlsGrouping_02_Trt",
              "groupId": "AnlsGrouping_02_Trt_1"
            },
            {
              "groupingId": "AnlsGrouping_06_Soc",
              "groupValue": "GASTROINTESTINAL DISORDERS"
            },
            {
              "groupingId": "AnlsGrouping_07_Pt",
              "groupValue": "GASTROOESOPHAGEAL REFLUX DISEASE"
            }
          ],
          "rawValue": "1",
          "formattedValue": "1"
        },
        {
          "operationId": "Mth01_CatVar_ByGrp_pct",
          "resultGroups": [
            {
              "groupingId": "AnlsGrouping_02_Trt",
              "groupId": "AnlsGrouping_02_Trt_1"
            },
            {
              "groupingId": "AnlsGrouping_06_Soc",
              "groupValue": "GASTROINTESTINAL DISORDERS"
            },
            {
              "groupingId": "AnlsGrouping_07_Pt",
              "groupValue": "GASTROOESOPHAGEAL REFLUX DISEASE"
            }
          ],
          "rawValue": "1.1628",
          "formattedValue": "(  1.2)"
        },
        {
          "operationId": "Mth01_CatVar_ByGrp_n",
          "resultGroups": [
            {
              "groupingId": "AnlsGrouping_02_Trt",
              "groupId": "AnlsGrouping_02_Trt_1"
            },
            {
              "groupingId": "AnlsGrouping_06_Soc",
              "groupValue": "GASTROINTESTINAL DISORDERS"
            },
            {
              "groupingId": "AnlsGrouping_07_Pt",
              "groupValue": "GLOSSITIS"
            }
          ],
          "rawValue": "1",
          "formattedValue": "1"
        },
        {
          "operationId": "Mth01_CatVar_ByGrp_pct",
          "resultGroups": [
            {
              "groupingId": "AnlsGrouping_02_Trt",
              "groupId": "AnlsGrouping_02_Trt_1"
            },
            {
              "groupingId": "AnlsGrouping_06_Soc",
              "groupValue": "GASTROINTESTINAL DISORDERS"
            },
            {
              "groupingId": "AnlsGrouping_07_Pt",
              "groupValue": "GLOSSITIS"
            }
          ],
          "rawValue": "1.1628",
          "formattedValue": "(  1.2)"
        },
        {
          "operationId": "Mth01_CatVar_ByGrp_n",
          "resultGroups": [
            {
              "groupingId": "AnlsGrouping_02_Trt",
              "groupId": "AnlsGrouping_02_Trt_1"
            },
            {
              "groupingId": "AnlsGrouping_06_Soc",
              "groupValue": "GASTROINTESTINAL DISORDERS"
            },
            {
              "groupingId": "AnlsGrouping_07_Pt",
              "groupValue": "HIATUS HERNIA"
            }
          ],
          "rawValue": "1",
          "formattedValue": "1"
        },
        {
          "operationId": "Mth01_CatVar_ByGrp_pct",
          "resultGroups": [
            {
              "groupingId": "AnlsGrouping_02_Trt",
              "groupId": "AnlsGrouping_02_Trt_1"
            },
            {
              "groupingId": "AnlsGrouping_06_Soc",
              "groupValue": "GASTROINTESTINAL DISORDERS"
            },
            {
              "groupingId": "AnlsGrouping_07_Pt",
              "groupValue": "HIATUS HERNIA"
            }
          ],
          "rawValue": "1.1628",
          "formattedValue": "(  1.2)"
        },
        {
          "operationId": "Mth01_CatVar_ByGrp_n",
          "resultGroups": [
            {
              "groupingId": "AnlsGrouping_02_Trt",
              "groupId": "AnlsGrouping_02_Trt_1"
            },
            {
              "groupingId": "AnlsGrouping_06_Soc",
              "groupValue": "GASTROINTESTINAL DISORDERS"
            },
            {
              "groupingId": "AnlsGrouping_07_Pt",
              "groupValue": "NAUSEA"
            }
          ],
          "rawValue": "3",
          "formattedValue": "3"
        },
        {
          "operationId": "Mth01_CatVar_ByGrp_pct",
          "resultGroups": [
            {
              "groupingId": "AnlsGrouping_02_Trt",
              "groupId": "AnlsGrouping_02_Trt_1"
            },
            {
              "groupingId": "AnlsGrouping_06_Soc",
              "groupValue": "GASTROINTESTINAL DISORDERS"
            },
            {
              "groupingId": "AnlsGrouping_07_Pt",
              "groupValue": "NAUSEA"
            }
          ],
          "rawValue": "3.4884",
          "formattedValue": "(  3.5)"
        },
        {
          "operationId": "Mth01_CatVar_ByGrp_n",
          "resultGroups": [
            {
              "groupingId": "AnlsGrouping_02_Trt",
              "groupId": "AnlsGrouping_02_Trt_1"
            },
            {
              "groupingId": "AnlsGrouping_06_Soc",
              "groupValue": "GASTROINTESTINAL DISORDERS"
            },
            {
              "groupingId": "AnlsGrouping_07_Pt",
              "groupValue": "RECTAL HAEMORRHAGE"
            }
          ],
          "rawValue": "0",
          "formattedValue": "0"
        },
        {
          "operationId": "Mth01_CatVar_ByGrp_pct",
          "resultGroups": [
            {
              "groupingId": "AnlsGrouping_02_Trt",
              "groupId": "AnlsGrouping_02_Trt_1"
            },
            {
              "groupingId": "AnlsGrouping_06_Soc",
              "groupValue": "GASTROINTESTINAL DISORDERS"
            },
            {
              "groupingId": "AnlsGrouping_07_Pt",
              "groupValue": "RECTAL HAEMORRHAGE"
            }
          ],
          "rawValue": "0",
          "formattedValue": "(  0.0)"
        },
        {
          "operationId": "Mth01_CatVar_ByGrp_n",
          "resultGroups": [
            {
              "groupingId": "AnlsGrouping_02_Trt",
              "groupId": "AnlsGrouping_02_Trt_1"
            },
            {
              "groupingId": "AnlsGrouping_06_Soc",
              "groupValue": "GASTROINTESTINAL DISORDERS"
            },
            {
              "groupingId": "AnlsGrouping_07_Pt",
              "groupValue": "SALIVARY HYPERSECRETION"
            }
          ],
          "rawValue": "0",
          "formattedValue": "0"
        },
        {
          "operationId": "Mth01_CatVar_ByGrp_pct",
          "resultGroups": [
            {
              "groupingId": "AnlsGrouping_02_Trt",
              "groupId": "AnlsGrouping_02_Trt_1"
            },
            {
              "groupingId": "AnlsGrouping_06_Soc",
              "groupValue": "GASTROINTESTINAL DISORDERS"
            },
            {
              "groupingId": "AnlsGrouping_07_Pt",
              "groupValue": "SALIVARY HYPERSECRETION"
            }
          ],
          "rawValue": "0",
          "formattedValue": "(  0.0)"
        },
        {
          "operationId": "Mth01_CatVar_ByGrp_n",
          "resultGroups": [
            {
              "groupingId": "AnlsGrouping_02_Trt",
              "groupId": "AnlsGrouping_02_Trt_1"
            },
            {
              "groupingId": "AnlsGrouping_06_Soc",
              "groupValue": "GASTROINTESTINAL DISORDERS"
            },
            {
              "groupingId": "AnlsGrouping_07_Pt",
              "groupValue": "STOMACH DISCOMFORT"
            }
          ],
          "rawValue": "0",
          "formattedValue": "0"
        },
        {
          "operationId": "Mth01_CatVar_ByGrp_pct",
          "resultGroups": [
            {
              "groupingId": "AnlsGrouping_02_Trt",
              "groupId": "AnlsGrouping_02_Trt_1"
            },
            {
              "groupingId": "AnlsGrouping_06_Soc",
              "groupValue": "GASTROINTESTINAL DISORDERS"
            },
            {
              "groupingId": "AnlsGrouping_07_Pt",
              "groupValue": "STOMACH DISCOMFORT"
            }
          ],
          "rawValue": "0",
          "formattedValue": "(  0.0)"
        },
        {
          "operationId": "Mth01_CatVar_ByGrp_n",
          "resultGroups": [
            {
              "groupingId": "AnlsGrouping_02_Trt",
              "groupId": "AnlsGrouping_02_Trt_1"
            },
            {
              "groupingId": "AnlsGrouping_06_Soc",
              "groupValue": "GASTROINTESTINAL DISORDERS"
            },
            {
              "groupingId": "AnlsGrouping_07_Pt",
              "groupValue": "VOMITING"
            }
          ],
          "rawValue": "3",
          "formattedValue": "3"
        },
        {
          "operationId": "Mth01_CatVar_ByGrp_pct",
          "resultGroups": [
            {
              "groupingId": "AnlsGrouping_02_Trt",
              "groupId": "AnlsGrouping_02_Trt_1"
            },
            {
              "groupingId": "AnlsGrouping_06_Soc",
              "groupValue": "GASTROINTESTINAL DISORDERS"
            },
            {
              "groupingId": "AnlsGrouping_07_Pt",
              "groupValue": "VOMITING"
            }
          ],
          "rawValue": "3.4884",
          "formattedValue": "(  3.5)"
        },
        {
          "operationId": "Mth01_CatVar_ByGrp_n",
          "resultGroups": [
            {
              "groupingId": "AnlsGrouping_02_Trt",
              "groupId": "AnlsGrouping_02_Trt_1"
            },
            {
              "groupingId": "AnlsGrouping_06_Soc",
              "groupValue": "GENERAL DISORDERS AND ADMINISTRATION SITE CONDITIONS"
            },
            {
              "groupingId": "AnlsGrouping_07_Pt",
              "groupValue": "APPLICATION SITE BLEEDING"
            }
          ],
          "rawValue": "0",
          "formattedValue": "0"
        },
        {
          "operationId": "Mth01_CatVar_ByGrp_pct",
          "resultGroups": [
            {
              "groupingId": "AnlsGrouping_02_Trt",
              "groupId": "AnlsGrouping_02_Trt_1"
            },
            {
              "groupingId": "AnlsGrouping_06_Soc",
              "groupValue": "GENERAL DISORDERS AND ADMINISTRATION SITE CONDITIONS"
            },
            {
              "groupingId": "AnlsGrouping_07_Pt",
              "groupValue": "APPLICATION SITE BLEEDING"
            }
          ],
          "rawValue": "0",
          "formattedValue": "(  0.0)"
        },
        {
          "operationId": "Mth01_CatVar_ByGrp_n",
          "resultGroups": [
            {
              "groupingId": "AnlsGrouping_02_Trt",
              "groupId": "AnlsGrouping_02_Trt_1"
            },
            {
              "groupingId": "AnlsGrouping_06_Soc",
              "groupValue": "GENERAL DISORDERS AND ADMINISTRATION SITE CONDITIONS"
            },
            {
              "groupingId": "AnlsGrouping_07_Pt",
              "groupValue": "APPLICATION SITE DERMATITIS"
            }
          ],
          "rawValue": "5",
          "formattedValue": "5"
        },
        {
          "operationId": "Mth01_CatVar_ByGrp_pct",
          "resultGroups": [
            {
              "groupingId": "AnlsGrouping_02_Trt",
              "groupId": "AnlsGrouping_02_Trt_1"
            },
            {
              "groupingId": "AnlsGrouping_06_Soc",
              "groupValue": "GENERAL DISORDERS AND ADMINISTRATION SITE CONDITIONS"
            },
            {
              "groupingId": "AnlsGrouping_07_Pt",
              "groupValue": "APPLICATION SITE DERMATITIS"
            }
          ],
          "rawValue": "5.814",
          "formattedValue": "(  5.8)"
        },
        {
          "operationId": "Mth01_CatVar_ByGrp_n",
          "resultGroups": [
            {
              "groupingId": "AnlsGrouping_02_Trt",
              "groupId": "AnlsGrouping_02_Trt_1"
            },
            {
              "groupingId": "AnlsGrouping_06_Soc",
              "groupValue": "GENERAL DISORDERS AND ADMINISTRATION SITE CONDITIONS"
            },
            {
              "groupingId": "AnlsGrouping_07_Pt",
              "groupValue": "APPLICATION SITE DESQUAMATION"
            }
          ],
          "rawValue": "0",
          "formattedValue": "0"
        },
        {
          "operationId": "Mth01_CatVar_ByGrp_pct",
          "resultGroups": [
            {
              "groupingId": "AnlsGrouping_02_Trt",
              "groupId": "AnlsGrouping_02_Trt_1"
            },
            {
              "groupingId": "AnlsGrouping_06_Soc",
              "groupValue": "GENERAL DISORDERS AND ADMINISTRATION SITE CONDITIONS"
            },
            {
              "groupingId": "AnlsGrouping_07_Pt",
              "groupValue": "APPLICATION SITE DESQUAMATION"
            }
          ],
          "rawValue": "0",
          "formattedValue": "(  0.0)"
        },
        {
          "operationId": "Mth01_CatVar_ByGrp_n",
          "resultGroups": [
            {
              "groupingId": "AnlsGrouping_02_Trt",
              "groupId": "AnlsGrouping_02_Trt_1"
            },
            {
              "groupingId": "AnlsGrouping_06_Soc",
              "groupValue": "GENERAL DISORDERS AND ADMINISTRATION SITE CONDITIONS"
            },
            {
              "groupingId": "AnlsGrouping_07_Pt",
              "groupValue": "APPLICATION SITE DISCHARGE"
            }
          ],
          "rawValue": "0",
          "formattedValue": "0"
        },
        {
          "operationId": "Mth01_CatVar_ByGrp_pct",
          "resultGroups": [
            {
              "groupingId": "AnlsGrouping_02_Trt",
              "groupId": "AnlsGrouping_02_Trt_1"
            },
            {
              "groupingId": "AnlsGrouping_06_Soc",
              "groupValue": "GENERAL DISORDERS AND ADMINISTRATION SITE CONDITIONS"
            },
            {
              "groupingId": "AnlsGrouping_07_Pt",
              "groupValue": "APPLICATION SITE DISCHARGE"
            }
          ],
          "rawValue": "0",
          "formattedValue": "(  0.0)"
        },
        {
          "operationId": "Mth01_CatVar_ByGrp_n",
          "resultGroups": [
            {
              "groupingId": "AnlsGrouping_02_Trt",
              "groupId": "AnlsGrouping_02_Trt_1"
            },
            {
              "groupingId": "AnlsGrouping_06_Soc",
              "groupValue": "GENERAL DISORDERS AND ADMINISTRATION SITE CONDITIONS"
            },
            {
              "groupingId": "AnlsGrouping_07_Pt",
              "groupValue": "APPLICATION SITE DISCOLOURATION"
            }
          ],
          "rawValue": "0",
          "formattedValue": "0"
        },
        {
          "operationId": "Mth01_CatVar_ByGrp_pct",
          "resultGroups": [
            {
              "groupingId": "AnlsGrouping_02_Trt",
              "groupId": "AnlsGrouping_02_Trt_1"
            },
            {
              "groupingId": "AnlsGrouping_06_Soc",
              "groupValue": "GENERAL DISORDERS AND ADMINISTRATION SITE CONDITIONS"
            },
            {
              "groupingId": "AnlsGrouping_07_Pt",
              "groupValue": "APPLICATION SITE DISCOLOURATION"
            }
          ],
          "rawValue": "0",
          "formattedValue": "(  0.0)"
        },
        {
          "operationId": "Mth01_CatVar_ByGrp_n",
          "resultGroups": [
            {
              "groupingId": "AnlsGrouping_02_Trt",
              "groupId": "AnlsGrouping_02_Trt_1"
            },
            {
              "groupingId": "AnlsGrouping_06_Soc",
              "groupValue": "GENERAL DISORDERS AND ADMINISTRATION SITE CONDITIONS"
            },
            {
              "groupingId": "AnlsGrouping_07_Pt",
              "groupValue": "APPLICATION SITE ERYTHEMA"
            }
          ],
          "rawValue": "3",
          "formattedValue": "3"
        },
        {
          "operationId": "Mth01_CatVar_ByGrp_pct",
          "resultGroups": [
            {
              "groupingId": "AnlsGrouping_02_Trt",
              "groupId": "AnlsGrouping_02_Trt_1"
            },
            {
              "groupingId": "AnlsGrouping_06_Soc",
              "groupValue": "GENERAL DISORDERS AND ADMINISTRATION SITE CONDITIONS"
            },
            {
              "groupingId": "AnlsGrouping_07_Pt",
              "groupValue": "APPLICATION SITE ERYTHEMA"
            }
          ],
          "rawValue": "3.4884",
          "formattedValue": "(  3.5)"
        },
        {
          "operationId": "Mth01_CatVar_ByGrp_n",
          "resultGroups": [
            {
              "groupingId": "AnlsGrouping_02_Trt",
              "groupId": "AnlsGrouping_02_Trt_1"
            },
            {
              "groupingId": "AnlsGrouping_06_Soc",
              "groupValue": "GENERAL DISORDERS AND ADMINISTRATION SITE CONDITIONS"
            },
            {
              "groupingId": "AnlsGrouping_07_Pt",
              "groupValue": "APPLICATION SITE INDURATION"
            }
          ],
          "rawValue": "1",
          "formattedValue": "1"
        },
        {
          "operationId": "Mth01_CatVar_ByGrp_pct",
          "resultGroups": [
            {
              "groupingId": "AnlsGrouping_02_Trt",
              "groupId": "AnlsGrouping_02_Trt_1"
            },
            {
              "groupingId": "AnlsGrouping_06_Soc",
              "groupValue": "GENERAL DISORDERS AND ADMINISTRATION SITE CONDITIONS"
            },
            {
              "groupingId": "AnlsGrouping_07_Pt",
              "groupValue": "APPLICATION SITE INDURATION"
            }
          ],
          "rawValue": "1.1628",
          "formattedValue": "(  1.2)"
        },
        {
          "operationId": "Mth01_CatVar_ByGrp_n",
          "resultGroups": [
            {
              "groupingId": "AnlsGrouping_02_Trt",
              "groupId": "AnlsGrouping_02_Trt_1"
            },
            {
              "groupingId": "AnlsGrouping_06_Soc",
              "groupValue": "GENERAL DISORDERS AND ADMINISTRATION SITE CONDITIONS"
            },
            {
              "groupingId": "AnlsGrouping_07_Pt",
              "groupValue": "APPLICATION SITE IRRITATION"
            }
          ],
          "rawValue": "3",
          "formattedValue": "3"
        },
        {
          "operationId": "Mth01_CatVar_ByGrp_pct",
          "resultGroups": [
            {
              "groupingId": "AnlsGrouping_02_Trt",
              "groupId": "AnlsGrouping_02_Trt_1"
            },
            {
              "groupingId": "AnlsGrouping_06_Soc",
              "groupValue": "GENERAL DISORDERS AND ADMINISTRATION SITE CONDITIONS"
            },
            {
              "groupingId": "AnlsGrouping_07_Pt",
              "groupValue": "APPLICATION SITE IRRITATION"
            }
          ],
          "rawValue": "3.4884",
          "formattedValue": "(  3.5)"
        },
        {
          "operationId": "Mth01_CatVar_ByGrp_n",
          "resultGroups": [
            {
              "groupingId": "AnlsGrouping_02_Trt",
              "groupId": "AnlsGrouping_02_Trt_1"
            },
            {
              "groupingId": "AnlsGrouping_06_Soc",
              "groupValue": "GENERAL DISORDERS AND ADMINISTRATION SITE CONDITIONS"
            },
            {
              "groupingId": "AnlsGrouping_07_Pt",
              "groupValue": "APPLICATION SITE PAIN"
            }
          ],
          "rawValue": "0",
          "formattedValue": "0"
        },
        {
          "operationId": "Mth01_CatVar_ByGrp_pct",
          "resultGroups": [
            {
              "groupingId": "AnlsGrouping_02_Trt",
              "groupId": "AnlsGrouping_02_Trt_1"
            },
            {
              "groupingId": "AnlsGrouping_06_Soc",
              "groupValue": "GENERAL DISORDERS AND ADMINISTRATION SITE CONDITIONS"
            },
            {
              "groupingId": "AnlsGrouping_07_Pt",
              "groupValue": "APPLICATION SITE PAIN"
            }
          ],
          "rawValue": "0",
          "formattedValue": "(  0.0)"
        },
        {
          "operationId": "Mth01_CatVar_ByGrp_n",
          "resultGroups": [
            {
              "groupingId": "AnlsGrouping_02_Trt",
              "groupId": "AnlsGrouping_02_Trt_1"
            },
            {
              "groupingId": "AnlsGrouping_06_Soc",
              "groupValue": "GENERAL DISORDERS AND ADMINISTRATION SITE CONDITIONS"
            },
            {
              "groupingId": "AnlsGrouping_07_Pt",
              "groupValue": "APPLICATION SITE PERSPIRATION"
            }
          ],
          "rawValue": "0",
          "formattedValue": "0"
        },
        {
          "operationId": "Mth01_CatVar_ByGrp_pct",
          "resultGroups": [
            {
              "groupingId": "AnlsGrouping_02_Trt",
              "groupId": "AnlsGrouping_02_Trt_1"
            },
            {
              "groupingId": "AnlsGrouping_06_Soc",
              "groupValue": "GENERAL DISORDERS AND ADMINISTRATION SITE CONDITIONS"
            },
            {
              "groupingId": "AnlsGrouping_07_Pt",
              "groupValue": "APPLICATION SITE PERSPIRATION"
            }
          ],
          "rawValue": "0",
          "formattedValue": "(  0.0)"
        },
        {
          "operationId": "Mth01_CatVar_ByGrp_n",
          "resultGroups": [
            {
              "groupingId": "AnlsGrouping_02_Trt",
              "groupId": "AnlsGrouping_02_Trt_1"
            },
            {
              "groupingId": "AnlsGrouping_06_Soc",
              "groupValue": "GENERAL DISORDERS AND ADMINISTRATION SITE CONDITIONS"
            },
            {
              "groupingId": "AnlsGrouping_07_Pt",
              "groupValue": "APPLICATION SITE PRURITUS"
            }
          ],
          "rawValue": "6",
          "formattedValue": "6"
        },
        {
          "operationId": "Mth01_CatVar_ByGrp_pct",
          "resultGroups": [
            {
              "groupingId": "AnlsGrouping_02_Trt",
              "groupId": "AnlsGrouping_02_Trt_1"
            },
            {
              "groupingId": "AnlsGrouping_06_Soc",
              "groupValue": "GENERAL DISORDERS AND ADMINISTRATION SITE CONDITIONS"
            },
            {
