name: Common Safety Displays
id: CSD
mainListOfContents:
  name: List of Planned Analyses
  label: LOPA
  contentsList:
    listItems:
    - name: Summary of Demographics
      level: 1
      order: 1
      outputId: Out14-1-1
      sublist:
        listItems:
        - name: Summary of Subjects by Treatment
          level: 2
          order: 1
          analysisId: An01_05_SAF_Summ_ByTrt
        - name: Age
          level: 2
          order: 2
          sublist:
            listItems:
            - name: Summary by Treatment
              level: 3
              order: 1
              analysisId: An03_01_Age_Summ_ByTrt
            - name: Comparison by Treatment
              level: 3
              order: 2
              analysisId: An03_01_Age_Comp_ByTrt
        - name: Age Group
          level: 2
          order: 3
          sublist:
            listItems:
            - name: Summary of Subjects by Treatment
              level: 3
              order: 1
              analysisId: An03_02_AgeGrp_Summ_ByTrt
            - name: Comparison of Subjects by Treatment
              level: 3
              order: 2
              analysisId: An03_02_AgeGrp_Comp_ByTrt
        - name: Sex
          level: 2
          order: 4
          sublist:
            listItems:
            - name: Summary of Subjects by Treatment
              level: 3
              order: 1
              analysisId: An03_03_Sex_Summ_ByTrt
            - name: Comparison of Subjects by Treatment
              level: 3
              order: 2
              analysisId: An03_03_Sex_Comp_ByTrt
        - name: Ethnicity
          level: 2
          order: 5
          sublist:
            listItems:
            - name: Summary of Subjects by Treatment
              level: 3
              order: 1
              analysisId: An03_04_Ethnic_Summ_ByTrt
            - name: Comparison of Subjects by Treatment
              level: 3
              order: 2
              analysisId: An03_04_Ethnic_Comp_ByTrt
        - name: Race
          level: 2
          order: 6
          sublist:
            listItems:
            - name: Summary of Subjects by Treatment
              level: 3
              order: 1
              analysisId: An03_05_Race_Summ_ByTrt
            - name: Comparison of Subjects by Treatment
              level: 3
              order: 2
              analysisId: An03_05_Race_Comp_ByTrt
        - name: Height
          level: 2
          order: 7
          sublist:
            listItems:
            - name: Summary by Treatment
              level: 3
              order: 1
              analysisId: An03_06_Height_Summ_ByTrt
            - name: Comparison by Treatment
              level: 3
              order: 2
              analysisId: An03_06_Height_Comp_ByTrt
    - name: Overall Summary of Treatment-Emergent Adverse Events
      level: 1
      order: 2
      outputId: Out14-3-1-1
      sublist:
        listItems:
        - name: Summary of Subjects by Treatment
          level: 2
          order: 1
          analysisId: An01_05_SAF_Summ_ByTrt
        - name: Number of subjects with at least one event
          level: 2
          order: 2
          sublist:
            listItems:
            - name: TEAE
              level: 3
              order: 1
              analysisId: An07_01_TEAE_Summ_ByTrt
            - name: Related TEAE
              level: 3
              order: 2
              analysisId: An07_02_RelTEAE_Summ_ByTrt
            - name: Serious TEAE
              level: 3
              order: 3
              analysisId: An07_03_SerTEAE_Summ_ByTrt
            - name: Related Serious TEAE
              level: 3
              order: 4
              analysisId: An07_04_RelSerTEAE_Summ_ByTrt
            - name: TEAE Leading to Death
              level: 3
              order: 5
              analysisId: An07_05_TEAELd2Dth_Summ_ByTrt
            - name: Related TEAE Leading to Death
              level: 3
              order: 6
              analysisId: An07_06_RelTEAELd2Dth_Summ_ByTrt
            - name: TEAE Leading to Dose Modification
              level: 3
              order: 7
              analysisId: An07_07_TEAELd2DoseMod_Summ_ByTrt
            - name: TEAE Leading to Treatment Discontinuation
              level: 3
              order: 8
              analysisId: An07_08_TEAELd2TrtDsc_Summ_ByTrt
    - name: Summary of TEAE by System Organ Class and Preferred Term
      level: 1
      order: 3
      outputId: Out14-3-2-1
      sublist:
        listItems:
        - name: Summary of Subjects by Treatment
          level: 2
          order: 1
          analysisId: An01_05_SAF_Summ_ByTrt
        - name: Number of subjects with at least one event
          level: 2
          order: 2
          sublist:
            listItems:
            - name: Summary of Subjects by Treatment
              level: 3
              order: 1
              analysisId: An07_01_TEAE_Summ_ByTrt
            - name: Comparison of Subjects by Treatment - Placebo vs Low Dose
              level: 3
              order: 2
              analysisId: An07_01_TEAE_Comp_ByTrt_PlacLow
            - name: Comparison of Subjects by Treatment - Placebo vs High Dose
              level: 3
              order: 3
              analysisId: An07_01_TEAE_Comp_ByTrt_PlacHigh
        - name: System Organ Class
          level: 2
          order: 3
          sublist:
            listItems:
            - name: Summary of Subjects by Treatment and System Organ Class
              level: 3
              order: 1
              analysisId: An07_09_Soc_Summ_ByTrt
            - name: Comparison of Subjects with TEAEs by Treatment and System Organ
                Class - Placebo vs Low Dose
              level: 3
              order: 2
              analysisId: An07_09_Soc_Comp_ByTrt_PlacLow
            - name: Comparison of Subjects with TEAEs by Treatment and System Organ
                Class - Placebo vs High Dose
              level: 3
              order: 3
              analysisId: An07_09_Soc_Comp_ByTrt_PlacHigh
        - name: Preferred Term
          level: 2
          order: 4
          sublist:
            listItems:
            - name: Summary of Subjects by Treatment, System Organ Class and Preferred
                Term
              level: 3
              order: 1
              analysisId: An07_10_SocPt_Summ_ByTrt
            - name: Comparison of Subjects with TEAEs by Treatment, System Organ Class
                and Preferred Term - Placebo vs Low Dose
              level: 3
              order: 2
              analysisId: An07_10_SocPt_Comp_ByTrt_PlacLow
            - name: Comparison of Subjects with TEAEs by Treatment, System Organ Class
                and Preferred Term - Placebo vs High Dose
              level: 3
              order: 3
              analysisId: An07_10_SocPt_Comp_ByTrt_PlacHigh
    - name: Summary of Observed and Change from Baseline by Scheduled Visits - Vital
        Signs (Horizontal)
      level: 1
      order: 4
      outputId: Out14-3-3-1a
      sublist:
        listItems:
        - name: Summary of Subjects by Treatment
          level: 2
          order: 1
          analysisId: An01_05_SAF_Summ_ByTrt
        - name: Summary of Observed Value by Treatment, Parameter and Visit
          level: 2
          order: 2
          analysisId: An08_01_Obs_Summ_ByTrt
        - name: Summary of Change from Baseline by Treatment, Parameter and Visit
          level: 2
          order: 3
          analysisId: An08_02_ChgBl_Summ_ByTrt
    - name: Summary of Observed and Change from Baseline by Scheduled Visits - Vital
        Signs (Vertical)
      level: 1
      order: 5
      outputId: Out14-3-3-1b
      sublist:
        listItems:
        - name: Summary of Subjects by Treatment
          level: 2
          order: 1
          analysisId: An01_05_SAF_Summ_ByTrt
        - name: Summary of Observed Value by Treatment, Parameter and Visit
          level: 2
          order: 2
          analysisId: An08_01_Obs_Summ_ByTrt
        - name: Summary of Change from Baseline by Treatment, Parameter and Visit
          level: 2
          order: 3
          analysisId: An08_02_ChgBl_Summ_ByTrt
version: 1
otherListsOfContents:
- name: List of Planned Outputs
  label: LOPO
  contentsList:
    listItems:
    - name: Summary of Demographics
      level: 1
      order: 1
      outputId: Out14-1-1
    - name: Overall Summary of Treatment-Emergent Adverse Events
      level: 1
      order: 2
      outputId: Out14-3-1-1
    - name: Summary of TEAE by System Organ Class and Preferred Term
      level: 1
      order: 3
      outputId: Out14-3-2-1
    - name: Summary of Observed and Change from Baseline by Scheduled Visits - Vital
        Signs (Horizontal)
      level: 1
      order: 4
      outputId: Out14-3-3-1a
    - name: Summary of Observed and Change from Baseline by Scheduled Visits - Vital
        Signs (Vertical)
      level: 1
      order: 5
      outputId: Out14-3-3-1b
referenceDocuments:
- name: Statistical Analysis Plan
  id: CDISCPILOT01_SAP
  location: ./sap.pdf
- name: Clinical Study Report
  id: CDISCPILOT01_CSR
  location: ./csr-cdiscpilot01.pdf
- name: at14-5-01.sas
  id: at14-5-01_sas
  location: ./at14-5-01.sas
- name: AE Summary Table Shell
  id: AE_Summary_Table_Shell
  location: ./AE_Summary_Table_Shell.pdf
terminologyExtensions:
- id: TermEx1
  sponsorTerms:
  - id: TermEx1_1
    submissionValue: ADDITIONAL EXAMPLE
    description: The analysis was included in the set as an additional example to
      demonstrate both a different type of analysis and sponsor terminology for analysis
      reason.
  enumeration: AnalysisReasonEnum
analysisOutputCategorizations:
- id: Catn_01_Grp
  categories:
  - id: Catn_01_Grp_1_Pop
    label: Population Description
  - id: Catn_01_Grp_2_Saf
    label: Safety
  - id: Catn_01_Grp_3_Eff
    label: Efficacy
  label: Group of Analyses
- id: Catn_02_DClass
  categories:
  - id: Catn_02_Dclass_1_Sbj
    label: Subject-level
    subCategorizations:
    - id: Catn_03_SbjDType
      categories:
      - id: Catn_03_SbjDType_1_Dm
        label: Demographics
      label: Subject-level Data Type
  - id: Catn_02_Dclass_2_Evt
    label: Events
    subCategorizations:
    - id: Catn_04_EvtDType
      categories:
      - id: Catn_04_EvtDType_1_Ae
        label: Adverse Events
      - id: Catn_04_EvtDType_2_Ce
        label: Clinical Events
      - id: Catn_04_EvtDType_3_Ds
        label: Disposition
      label: Events Data Type
    - id: Catn_05_EvtAType
      categories:
      - id: Catn_05_EvtAType_1_Occ
        label: Occurrence
      - id: Catn_05_EvtAType_2_Tte
        label: Time-to-Event
      label: Events Analysis Type
  - id: Catn_02_Dclass_3_Fnd
    label: Findings
    subCategorizations:
    - id: Catn_06_FndDType
      categories:
      - id: Catn_06_FndDType_1_Vs
        label: Vital Signs
      - id: Catn_06_FndDType_2_Lb
        label: Laboratory Tests
      label: Findings Data Type
    - id: Catn_07_FndAType
      categories:
      - id: Catn_07_FndAType_1_Chg
        label: Change from Baseline
      - id: Catn_07_FndAType_2_Sft
        label: Shift Table
      label: Findings Analysis Type
  label: Analysis Data Class
analysisSets:
- name: Intent-to-Treat Population
  label: ITT
  id: AnalysisSet_01_ITT
  level: 1
  order: 1
  condition:
    dataset: ADSL
    variable: ITTFL
    comparator: EQ
    value:
    - Y
- name: Safety Population
  label: SAF
  id: AnalysisSet_02_SAF
  level: 1
  order: 1
  condition:
    dataset: ADSL
    variable: SAFFL
    comparator: EQ
    value:
    - Y
dataSubsets:
- name: Treatment-Emergent Adverse Events
  id: Dss01_TEAE
  level: 1
  order: 1
  condition:
    dataset: ADAE
    variable: TRTEMFL
    comparator: EQ
    value:
    - Y
- name: Related Treatment-Emergent Adverse Events
  id: Dss02_Related_TEAE
  level: 1
  order: 1
  compoundExpression:
    logicalOperator: AND
    whereClauses:
    - level: 2
      order: 1
      condition:
        dataset: ADAE
        variable: TRTEMFL
        comparator: EQ
        value:
        - Y
    - level: 2
      order: 2
      condition:
        dataset: ADAE
        variable: AEREL
        comparator: IN
        value:
        - POSSIBLE
        - PROBABLE
- name: Serious Treatment-Emergent Adverse Events
  id: Dss03_Serious_TEAE
  level: 1
  order: 1
  compoundExpression:
    logicalOperator: AND
    whereClauses:
    - level: 2
      order: 1
      condition:
        dataset: ADAE
        variable: TRTEMFL
        comparator: EQ
        value:
        - Y
    - level: 2
      order: 2
      condition:
        dataset: ADAE
        variable: AESER
        comparator: EQ
        value:
        - Y
- name: Related Serious Treatment-Emergent Adverse Events
  id: Dss04_RelSer_TEAE
  level: 1
  order: 1
  compoundExpression:
    logicalOperator: AND
    whereClauses:
    - level: 2
      order: 1
      condition:
        dataset: ADAE
        variable: TRTEMFL
        comparator: EQ
        value:
        - Y
    - level: 2
      order: 2
      condition:
        dataset: ADAE
        variable: AEREL
        comparator: IN
        value:
        - POSSIBLE
        - PROBABLE
    - level: 2
      order: 3
      condition:
        dataset: ADAE
        variable: AESER
        comparator: EQ
        value:
        - Y
- name: Treatment-Emergent Adverse Events Leading to Death
  id: Dss05_TEAE_Ld2Dth
  level: 1
  order: 1
  compoundExpression:
    logicalOperator: AND
    whereClauses:
    - level: 2
      order: 1
      condition:
        dataset: ADAE
        variable: TRTEMFL
        comparator: EQ
        value:
        - Y
    - level: 2
      order: 2
      condition:
        dataset: ADAE
        variable: AESDTH
        comparator: EQ
        value:
        - Y
- name: Related Treatment-Emergent Adverse Events Leading to Death
  id: Dss06_Rel_TEAE_Ld2Dth
  level: 1
  order: 1
  compoundExpression:
    logicalOperator: AND
    whereClauses:
    - level: 2
      order: 1
      condition:
        dataset: ADAE
        variable: TRTEMFL
        comparator: EQ
        value:
        - Y
    - level: 2
      order: 2
      condition:
        dataset: ADAE
        variable: AESDTH
        comparator: EQ
        value:
        - Y
    - level: 2
      order: 3
      compoundExpression:
        logicalOperator: OR
        whereClauses:
        - level: 3
          order: 1
          condition:
            dataset: ADAE
            variable: AEREL
            comparator: EQ
            value:
            - POSSIBLE
        - level: 3
          order: 2
          condition:
            dataset: ADAE
            variable: AEREL
            comparator: EQ
            value:
            - PROBABLE
- name: Treatment-Emergent Adverse Events Leading to Dose Modification
  id: Dss07_TEAE_Ld2DoseMod
  level: 1
  order: 1
  compoundExpression:
    logicalOperator: AND
    whereClauses:
    - level: 2
      order: 1
      condition:
        dataset: ADAE
        variable: TRTEMFL
        comparator: EQ
        value:
        - Y
    - level: 2
      order: 2
      condition:
        dataset: ADAE
        variable: AEACN
        comparator: IN
        value:
        - DOSE REDUCED
        - DRUG INTERRUPTED
- name: Treatment-Emergent Adverse Events Leading to Treatment Discontinuation
  id: Dss08_AE_Ld2TrtDsc
  level: 1
  order: 1
  compoundExpression:
    logicalOperator: AND
    whereClauses:
    - level: 2
      order: 1
      condition:
        dataset: ADAE
        variable: TRTEMFL
        comparator: EQ
        value:
        - Y
    - level: 2
      order: 2
      condition:
        dataset: ADAE
        variable: AEACN
        comparator: EQ
        value:
        - DRUG WITHDRAWN
- name: Vital Signs Analysis Records
  id: Dss09_VS_AnRec
  level: 1
  order: 1
  condition:
    dataset: ADVS
    variable: ANL01FL
    comparator: EQ
    value:
    - Y
- name: Vital Signs Non-baseline Analysis Records
  id: Dss10_VS_NonBl_AnRec
  level: 1
  order: 1
  compoundExpression:
    logicalOperator: AND
    whereClauses:
    - level: 2
      order: 1
      condition:
        dataset: ADVS
        variable: ANL01FL
        comparator: EQ
        value:
        - Y
    - level: 2
      order: 2
      condition:
        dataset: ADVS
        variable: AVISIT
        comparator: NE
        value:
        - Baseline
- name: Treatment-Emergent Adverse Events for Placebo and Low Active Dose
  id: Dss11_TEAE_PlacLow
  level: 1
  order: 1
  compoundExpression:
    logicalOperator: AND
    whereClauses:
    - level: 2
      order: 1
      condition:
        dataset: ADAE
        variable: TRTEMFL
        comparator: EQ
        value:
        - Y
    - level: 2
      order: 2
      condition:
        dataset: ADSL
        variable: TRT01A
        comparator: IN
        value:
        - Placebo
        - Xanomeline Low Dose
- name: Treatment-Emergent Adverse Events for Placebo and High Active Dose
  id: Dss12_TEAE_PlacHigh
  level: 1
  order: 1
  compoundExpression:
    logicalOperator: AND
    whereClauses:
    - level: 2
      order: 1
      condition:
        dataset: ADAE
        variable: TRTEMFL
        comparator: EQ
        value:
        - Y
    - level: 2
      order: 2
      condition:
        dataset: ADSL
        variable: TRT01A
        comparator: IN
        value:
        - Placebo
        - Xanomeline High Dose
analysisGroupings:
- name: Treatment
  id: AnlsGrouping_01_Trt
  dataDriven: false
  groupingDataset: ADSL
  groupingVariable: TRT01A
  groups:
  - name: Placebo
    id: AnlsGrouping_01_Trt_1
    level: 1
    order: 1
    condition:
      dataset: ADSL
      variable: TRT01A
      comparator: EQ
      value:
      - Placebo
  - name: Xanomeline Low Dose
    id: AnlsGrouping_01_Trt_2
    level: 1
    order: 2
    condition:
      dataset: ADSL
      variable: TRT01A
      comparator: EQ
      value:
      - Xanomeline Low Dose
  - name: Xanomeline High Dose
    id: AnlsGrouping_01_Trt_3
    level: 1
    order: 3
    condition:
      dataset: ADSL
      variable: TRT01A
      comparator: EQ
      value:
      - Xanomeline High Dose
- name: Gender
  id: AnlsGrouping_02_Sex
  dataDriven: false
  groupingDataset: ADSL
  groupingVariable: SEX
  groups:
  - name: Male
    id: AnlsGrouping_02_Sex_1
    level: 1
    order: 1
    condition:
      dataset: ADSL
      variable: SEX
      comparator: EQ
      value:
      - M
  - name: Female
    id: AnlsGrouping_02_Sex_2
    level: 1
    order: 2
    condition:
      dataset: ADSL
      variable: SEX
      comparator: EQ
      value:
      - F
- name: Age Group
  id: AnlsGrouping_03_AgeGp
  dataDriven: false
  groupingDataset: ADSL
  groupingVariable: AGEGR1
  groups:
  - name: < 65 years
    id: AnlsGrouping_03_AgeGp_1
    level: 1
    order: 1
    condition:
      dataset: ADSL
      variable: AGEGR1
      comparator: EQ
      value:
      - <65
  - name: ≥ 65 years
    id: AnlsGrouping_03_AgeGp_2
    level: 1
    order: 2
    condition:
      dataset: ADSL
      variable: AGEGR1
      comparator: IN
      value:
      - 65-80 | >80
- name: Primary Race
  id: AnlsGrouping_04_Race
  dataDriven: false
  groupingDataset: ADSL
  groupingVariable: RACE
  groups:
  - name: American Indian or Alaska Native
    id: AnlsGrouping_04_Race_1
    level: 1
    order: 1
    condition:
      dataset: ADSL
      variable: RACE
      comparator: EQ
      value:
      - AMERICAN INDIAN OR ALASKA NATIVE
  - name: Asian
    id: AnlsGrouping_04_Race_2
    level: 1
    order: 2
    condition:
      dataset: ADSL
      variable: RACE
      comparator: EQ
      value:
      - ASIAN
  - name: Black or African American
    id: AnlsGrouping_04_Race_3
    level: 1
    order: 3
    condition:
      dataset: ADSL
      variable: RACE
      comparator: EQ
      value:
      - BLACK OR AFRICAN AMERICAN
  - name: Native Hawaiian or Other Pacific Islander
    id: AnlsGrouping_04_Race_4
    level: 1
    order: 4
    condition:
      dataset: ADSL
      variable: RACE
      comparator: EQ
      value:
      - NATIVE HAWAIIAN OR OTHER PACIFIC ISLANDER
  - name: White
    id: AnlsGrouping_04_Race_5
    level: 1
    order: 5
    condition:
      dataset: ADSL
      variable: RACE
      comparator: EQ
      value:
      - WHITE
  - name: Multiple
    id: AnlsGrouping_04_Race_6
    level: 1
    order: 6
    condition:
      dataset: ADSL
      variable: RACE
      comparator: EQ
      value:
      - MULTIPLE
  - name: Not Reported
    id: AnlsGrouping_04_Race_7
    level: 1
    order: 7
    condition:
      dataset: ADSL
      variable: RACE
      comparator: EQ
      value:
      - NOT REPORTED
  - name: Unknown
    id: AnlsGrouping_04_Race_8
    level: 1
    order: 8
    condition:
      dataset: ADSL
      variable: RACE
      comparator: EQ
      value:
      - UNKNOWN
  - name: Other
    id: AnlsGrouping_04_Race_9
    level: 1
    order: 9
    condition:
      dataset: ADSL
      variable: RACE
      comparator: EQ
      value:
      - OTHER
- name: Ethnicity
  id: AnlsGrouping_05_Ethnic
  dataDriven: false
  groupingDataset: ADSL
  groupingVariable: ETHNIC
  groups:
  - name: Hispanic or Latino
    id: AnlsGrouping_05_Ethnic_1
    level: 1
    order: 1
    condition:
      dataset: ADSL
      variable: ETHNIC
      comparator: EQ
      value:
      - HISPANIC OR LATINO
  - name: Not Hispanic or Latino
    id: AnlsGrouping_05_Ethnic_2
    level: 1
    order: 2
    condition:
      dataset: ADSL
      variable: ETHNIC
      comparator: EQ
      value:
      - NOT HISPANIC OR LATINO
- name: System Organ Class
  id: AnlsGrouping_06_Soc
  dataDriven: true
  groupingDataset: ADAE
  groupingVariable: AESOC
- name: Preferred Term
  id: AnlsGrouping_07_Pt
  dataDriven: true
  groupingDataset: ADAE
  groupingVariable: AEDECOD
- name: Parameter
  id: AnlsGrouping_08_Param
  dataDriven: false
  groupingDataset: ADVS
  groupingVariable: PARAMCD
  groups:
  - name: Systolic Blood Pressure (mmHg)
    id: AnlsGrouping_08_Param_1
    level: 1
    order: 1
    condition:
      dataset: ADVS
      variable: PARAMCD
      comparator: EQ
      value:
      - SYSBP
  - name: Diastolic Blood Pressure (mmHg)
    id: AnlsGrouping_08_Param_2
    level: 1
    order: 2
    condition:
      dataset: ADVS
      variable: PARAMCD
      comparator: EQ
      value:
      - DIABP
  - name: Pulse Rate (beats/min)
    id: AnlsGrouping_08_Param_3
    level: 1
    order: 3
    condition:
      dataset: ADVS
      variable: PARAMCD
      comparator: EQ
      value:
      - PULSE
  - name: Temperature (C)
    id: AnlsGrouping_08_Param_4
    level: 1
    order: 4
    condition:
      dataset: ADVS
      variable: PARAMCD
      comparator: EQ
      value:
      - TEMP
- name: Visit
  id: AnlsGrouping_09_Visit
  dataDriven: false
  groupingDataset: ADVS
  groupingVariable: AVISIT
  groups:
  - name: Baseline
    id: AnlsGrouping_09_Visit_01
    level: 1
    order: 1
    condition:
      dataset: ADVS
      variable: AVISIT
      comparator: EQ
      value:
      - Baseline
  - name: Week 2
    id: AnlsGrouping_09_Visit_02
    level: 1
    order: 2
    condition:
      dataset: ADVS
      variable: AVISIT
      comparator: EQ
      value:
      - Week 2
  - name: Week 4
    id: AnlsGrouping_09_Visit_03
    level: 1
    order: 3
    condition:
      dataset: ADVS
      variable: AVISIT
      comparator: EQ
      value:
      - Week 4
  - name: Week 6
    id: AnlsGrouping_09_Visit_04
    level: 1
    order: 4
    condition:
      dataset: ADVS
      variable: AVISIT
      comparator: EQ
      value:
      - Week 6
  - name: Week 8
    id: AnlsGrouping_09_Visit_05
    level: 1
    order: 5
    condition:
      dataset: ADVS
      variable: AVISIT
      comparator: EQ
      value:
      - Week 8
  - name: Week 12
    id: AnlsGrouping_09_Visit_06
    level: 1
    order: 6
    condition:
      dataset: ADVS
      variable: AVISIT
      comparator: EQ
      value:
      - Week 12
  - name: Week 16
    id: AnlsGrouping_09_Visit_07
    level: 1
    order: 7
    condition:
      dataset: ADVS
      variable: AVISIT
      comparator: EQ
      value:
      - Week 16
  - name: Week 20
    id: AnlsGrouping_09_Visit_08
    level: 1
    order: 8
    condition:
      dataset: ADVS
      variable: AVISIT
      comparator: EQ
      value:
      - Week 20
  - name: Week 24
    id: AnlsGrouping_09_Visit_09
    level: 1
    order: 9
    condition:
      dataset: ADVS
      variable: AVISIT
      comparator: EQ
      value:
      - Week 24
  - name: Week 26
    id: AnlsGrouping_09_Visit_10
    level: 1
    order: 10
    condition:
      dataset: ADVS
      variable: AVISIT
      comparator: EQ
      value:
      - Week 26
  - name: End of Treatment
    id: AnlsGrouping_09_Visit_11
    level: 1
    order: 11
    condition:
      dataset: ADVS
      variable: AVISIT
      comparator: EQ
      value:
      - End of Treatment
methods:
- name: Count by group for a categorical variable
  description: Count across groups for a categorical variable, based on subject occurrence
  label: Grouped count for categorical variable
  id: Mth01_CatVar_Count_ByGrp
  operations:
  - name: Count of subjects
    label: n
    id: Mth01_CatVar_Count_ByGrp_1_n
    order: 1
    resultPattern: (N=XX)
- name: Summary by group of a categorical variable
  description: Descriptive summary statistics across groups for a categorical variable,
    based on subject occurrence
  label: Grouped summary of categorical variable
  id: Mth01_CatVar_Summ_ByGrp
  operations:
  - name: Count of subjects
    label: n
    id: Mth01_CatVar_Summ_ByGrp_1_n
    order: 1
    resultPattern: XXX
  - name: Percent of subjects
    label: '%'
    id: Mth01_CatVar_Summ_ByGrp_2_pct
    order: 2
    referencedOperationRelationships:
    - id: Mth01_CatVar_Summ_ByGrp_2_pct_NUM
      referencedOperationRole:
        controlledTerm: NUMERATOR
      operationId: Mth01_CatVar_Summ_ByGrp_1_n
      description: The count operation whose result provides the numerator for calculation
        of the percentage. The referenced analysis should be the analysis that contains
        this percent operation.
    - id: Mth01_CatVar_Summ_ByGrp_2_pct_DEN
      referencedOperationRole:
        controlledTerm: DENOMINATOR
      operationId: Mth01_CatVar_Count_ByGrp_1_n
      description: The count operation whose result provides the denominator for calculation
        of the percentage. The referenced analysis should have the same analysis set
        and subject grouping(s) as the analysis containing this percent operation.
    resultPattern: ( XX.X)
  documentRefs:
  - referenceDocumentId: CDISCPILOT01_SAP
    pageRefs:
    - refType: PhysicalRef
      label: 7. GENERAL CONSIDERATIONS FOR DATA ANALYSES
      pageNumbers:
      - 9
- name: Summary by group of a continuous variable
  description: Descriptive summary statistics across groups for a continuous variable
  label: Grouped summary of continuous variable
  id: Mth02_ContVar_Summ_ByGrp
  operations:
  - name: Count of non-missing values
    label: n
    id: Mth02_ContVar_Summ_ByGrp_1_n
    order: 1
    resultPattern: XX
  - name: Mean
    label: Mean
    id: Mth02_ContVar_Summ_ByGrp_2_Mean
    order: 2
    resultPattern: XX.X
  - name: Standard deviation
    label: SD
    id: Mth02_ContVar_Summ_ByGrp_3_SD
    order: 3
    resultPattern: (XX.XX)
  - name: Median
    label: Median
    id: Mth02_ContVar_Summ_ByGrp_4_Median
    order: 4
    resultPattern: XX.X
  - name: First quartile
    label: Q1
    id: Mth02_ContVar_Summ_ByGrp_5_Q1
    order: 5
    resultPattern: XX.X
  - name: Third quartile
    label: Q3
    id: Mth02_ContVar_Summ_ByGrp_6_Q3
    order: 6
    resultPattern: XX.X
  - name: Minimum
    label: Min
    id: Mth02_ContVar_Summ_ByGrp_7_Min
    order: 7
    resultPattern: XX
  - name: Maximum
    label: Max
    id: Mth02_ContVar_Summ_ByGrp_8_Max
    order: 8
    resultPattern: XX
  documentRefs:
  - referenceDocumentId: CDISCPILOT01_SAP
    pageRefs:
    - refType: PhysicalRef
      label: 7. GENERAL CONSIDERATIONS FOR DATA ANALYSES
      pageNumbers:
      - 9
- name: Pearson's chi-square test group comparison for a categorical variable
  description: Comparison of groups by Pearson's chi-square test for a categorical
    variable
  label: Pearson's chi-square test group comparison for categorical variable
  id: Mth03_CatVar_Comp_PChiSq
  operations:
  - name: P-value
    label: p-value
    id: Mth03_CatVar_Comp_PChiSq_1_pval
    order: 1
    resultPattern: X.XXXX
  codeTemplate:
    context: SAS Version 9.4
    code: "proc freq data={dataset};\ntable {grp1var}*{grp2var}/chisq;\nexact pchi;\
      \ \nods output PearsonChiSq=results.PCHI{outdssfx};\nrun;"
    parameters:
    - name: dataset
      description: Input dataset
      valueSource: dataset
    - name: grp1var
      description: First grouping variable
      valueSource: orderedGroupings[1].groupingVariable
    - name: grp2var
      description: Second grouping variable
      valueSource: orderedGroupings[2].groupingVariable
    - name: outdssfx
      description: Output dataset suffix
      valueSource: orderedGroupings[2].groupingVariable
- name: Analysis of variance group comparison for a continuous variable
  description: Comparison of groups by analysis of variance (ANOVA) for a continuous
    variable
  label: ANOVA group comparison for continuous variable
  id: Mth04_ContVar_Comp_Anova
  operations:
  - name: P-value
    label: p-value
    id: Mth04_ContVar_Comp_Anova_1_pval
    order: 1
    resultPattern: X.XXXX
  codeTemplate:
    context: SAS Version 9.4
    code: 'proc glm data={dataset};

      class {grp1var};

      model {grp2var}={gpr1var};

      ods output OverallANOVA=results.ANOV{outdssfx} (where=(source = ''Model''));

      run;'
    parameters:
    - name: dataset
      description: Input dataset
      valueSource: dataset
    - name: grp1var
      description: First grouping variable
      valueSource: orderedGroupings[1].groupingVariable
    - name: grp2var
      description: Second grouping variable
      valueSource: variable
    - name: outdssfx
      description: Output dataset suffix
      valueSource: variable
- name: Fisher's exact test group comparison for a categorical variable
  description: Comparison of groups by Fisher's exact test for a categorical variable
  label: Fisher's exact test group comparison for categorical variable
  id: Mth05_CatVar_Comp_FishEx
  operations:
  - name: P-value
    label: p-value
    id: Mth03_CatVar_Comp_FishEx_1_pval
    order: 1
    resultPattern: X.XXXX
analyses:
- name: Summary of Subjects by Treatment
  id: An01_05_SAF_Summ_ByTrt
  reason:
    controlledTerm: SPECIFIED IN SAP
  purpose:
    controlledTerm: PRIMARY OUTCOME MEASURE
  methodId: Mth01_CatVar_Count_ByGrp
  version: 1
  documentRefs:
  - referenceDocumentId: CDISCPILOT01_SAP
    pageRefs:
    - refType: PhysicalRef
      label: 6. ANALYSIS POPULATIONS
      pageNumbers:
      - 9
  categoryIds:
  - Catn_01_Grp_1_Pop
  - Catn_02_Dclass_1_Sbj
  - Catn_03_SbjDType_1_Dm
  dataset: ADSL
  variable: USUBJID
  analysisSetId: AnalysisSet_02_SAF
  orderedGroupings:
  - order: 1
    groupingId: AnlsGrouping_01_Trt
    resultsByGroup: true
  results:
  - operationId: Mth01_CatVar_Count_ByGrp_1_n
    resultGroups:
    - groupingId: AnlsGrouping_01_Trt
      groupId: AnlsGrouping_01_Trt_1
    rawValue: '86'
    formattedValue: (N=86)
  - operationId: Mth01_CatVar_Count_ByGrp_1_n
    resultGroups:
    - groupingId: AnlsGrouping_01_Trt
      groupId: AnlsGrouping_01_Trt_2
    rawValue: '84'
    formattedValue: (N=84)
  - operationId: Mth01_CatVar_Count_ByGrp_1_n
    resultGroups:
    - groupingId: AnlsGrouping_01_Trt
      groupId: AnlsGrouping_01_Trt_3
    rawValue: '84'
    formattedValue: (N=84)
- name: Summary of Age by Treatment
  label: Age
  id: An03_01_Age_Summ_ByTrt
  reason:
    controlledTerm: SPECIFIED IN SAP
  purpose:
    controlledTerm: PRIMARY OUTCOME MEASURE
  methodId: Mth02_ContVar_Summ_ByGrp
  version: 1
  documentRefs:
  - referenceDocumentId: CDISCPILOT01_SAP
    pageRefs:
    - refType: PhysicalRef
      label: 9.2. Demographic and Baseline Characteristics
      pageNumbers:
      - 13
  categoryIds:
  - Catn_01_Grp_1_Pop
  - Catn_02_Dclass_1_Sbj
  - Catn_03_SbjDType_1_Dm
  dataset: ADSL
  variable: AGE
  analysisSetId: AnalysisSet_02_SAF
  orderedGroupings:
  - order: 1
    groupingId: AnlsGrouping_01_Trt
    resultsByGroup: true
  results:
  - operationId: Mth02_ContVar_Summ_ByGrp_1_n
    resultGroups:
    - groupingId: AnlsGrouping_01_Trt
      groupId: AnlsGrouping_01_Trt_1
    rawValue: '86'
    formattedValue: '86'
  - operationId: Mth02_ContVar_Summ_ByGrp_1_n
    resultGroups:
    - groupingId: AnlsGrouping_01_Trt
      groupId: AnlsGrouping_01_Trt_2
    rawValue: '84'
    formattedValue: '84'
  - operationId: Mth02_ContVar_Summ_ByGrp_1_n
    resultGroups:
    - groupingId: AnlsGrouping_01_Trt
      groupId: AnlsGrouping_01_Trt_3
    rawValue: '84'
    formattedValue: '84'
  - operationId: Mth02_ContVar_Summ_ByGrp_2_Mean
    resultGroups:
    - groupingId: AnlsGrouping_01_Trt
      groupId: AnlsGrouping_01_Trt_1
    rawValue: '75.2093023'
    formattedValue: '75.2'
  - operationId: Mth02_ContVar_Summ_ByGrp_2_Mean
    resultGroups:
    - groupingId: AnlsGrouping_01_Trt
      groupId: AnlsGrouping_01_Trt_2
    rawValue: '75.6666667'
    formattedValue: '75.7'
  - operationId: Mth02_ContVar_Summ_ByGrp_2_Mean
    resultGroups:
    - groupingId: AnlsGrouping_01_Trt
      groupId: AnlsGrouping_01_Trt_3
    rawValue: '74.3809524'
    formattedValue: '74.4'
  - operationId: Mth02_ContVar_Summ_ByGrp_3_SD
    resultGroups:
    - groupingId: AnlsGrouping_01_Trt
      groupId: AnlsGrouping_01_Trt_1
    rawValue: '8.5901671'
    formattedValue: ( 8.59)
  - operationId: Mth02_ContVar_Summ_ByGrp_3_SD
    resultGroups:
    - groupingId: AnlsGrouping_01_Trt
      groupId: AnlsGrouping_01_Trt_2
    rawValue: '8.2860506'
    formattedValue: ( 8.29)
  - operationId: Mth02_ContVar_Summ_ByGrp_3_SD
    resultGroups:
    - groupingId: AnlsGrouping_01_Trt
      groupId: AnlsGrouping_01_Trt_3
    rawValue: '7.8860938'
    formattedValue: ( 7.89)
  - operationId: Mth02_ContVar_Summ_ByGrp_4_Median
    resultGroups:
    - groupingId: AnlsGrouping_01_Trt
      groupId: AnlsGrouping_01_Trt_1
    rawValue: '76'
    formattedValue: '76.0'
  - operationId: Mth02_ContVar_Summ_ByGrp_4_Median
    resultGroups:
    - groupingId: AnlsGrouping_01_Trt
      groupId: AnlsGrouping_01_Trt_2
    rawValue: '77.5'
    formattedValue: '77.5'
  - operationId: Mth02_ContVar_Summ_ByGrp_4_Median
    resultGroups:
    - groupingId: AnlsGrouping_01_Trt
      groupId: AnlsGrouping_01_Trt_3
    rawValue: '76'
    formattedValue: '76.0'
  - operationId: Mth02_ContVar_Summ_ByGrp_5_Q1
    resultGroups:
    - groupingId: AnlsGrouping_01_Trt
      groupId: AnlsGrouping_01_Trt_1
    rawValue: '69'
    formattedValue: '69.0'
  - operationId: Mth02_ContVar_Summ_ByGrp_5_Q1
    resultGroups:
    - groupingId: AnlsGrouping_01_Trt
      groupId: AnlsGrouping_01_Trt_2
    rawValue: '71'
    formattedValue: '71.0'
  - operationId: Mth02_ContVar_Summ_ByGrp_5_Q1
    resultGroups:
    - groupingId: AnlsGrouping_01_Trt
      groupId: AnlsGrouping_01_Trt_3
    rawValue: '70'
    formattedValue: '70.0'
  - operationId: Mth02_ContVar_Summ_ByGrp_6_Q3
    resultGroups:
    - groupingId: AnlsGrouping_01_Trt
      groupId: AnlsGrouping_01_Trt_1
    rawValue: '82'
    formattedValue: '82.0'
  - operationId: Mth02_ContVar_Summ_ByGrp_6_Q3
    resultGroups:
    - groupingId: AnlsGrouping_01_Trt
      groupId: AnlsGrouping_01_Trt_2
    rawValue: '82'
    formattedValue: '82.0'
  - operationId: Mth02_ContVar_Summ_ByGrp_6_Q3
    resultGroups:
    - groupingId: AnlsGrouping_01_Trt
      groupId: AnlsGrouping_01_Trt_3
    rawValue: '80'
    formattedValue: '80.0'
  - operationId: Mth02_ContVar_Summ_ByGrp_7_Min
    resultGroups:
    - groupingId: AnlsGrouping_01_Trt
      groupId: AnlsGrouping_01_Trt_1
    rawValue: '52'
    formattedValue: '52'
  - operationId: Mth02_ContVar_Summ_ByGrp_7_Min
    resultGroups:
    - groupingId: AnlsGrouping_01_Trt
      groupId: AnlsGrouping_01_Trt_2
    rawValue: '51'
    formattedValue: '51'
  - operationId: Mth02_ContVar_Summ_ByGrp_7_Min
    resultGroups:
    - groupingId: AnlsGrouping_01_Trt
      groupId: AnlsGrouping_01_Trt_3
    rawValue: '56'
    formattedValue: '56'
  - operationId: Mth02_ContVar_Summ_ByGrp_8_Max
    resultGroups:
    - groupingId: AnlsGrouping_01_Trt
      groupId: AnlsGrouping_01_Trt_1
    rawValue: '89'
    formattedValue: '89'
  - operationId: Mth02_ContVar_Summ_ByGrp_8_Max
    resultGroups:
    - groupingId: AnlsGrouping_01_Trt
      groupId: AnlsGrouping_01_Trt_2
    rawValue: '88'
    formattedValue: '88'
  - operationId: Mth02_ContVar_Summ_ByGrp_8_Max
    resultGroups:
    - groupingId: AnlsGrouping_01_Trt
      groupId: AnlsGrouping_01_Trt_3
    rawValue: '88'
    formattedValue: '88'
- name: Comparison of Age by Treatment
  label: Age
  id: An03_01_Age_Comp_ByTrt
  reason:
    controlledTerm: SPECIFIED IN SAP
  purpose:
    controlledTerm: PRIMARY OUTCOME MEASURE
  methodId: Mth04_ContVar_Comp_Anova
  version: 1
  documentRefs:
  - referenceDocumentId: CDISCPILOT01_SAP
    pageRefs:
    - refType: PhysicalRef
      label: 9.2. Demographic and Baseline Characteristics
      pageNumbers:
      - 13
  categoryIds:
  - Catn_01_Grp_1_Pop
  - Catn_02_Dclass_1_Sbj
  - Catn_03_SbjDType_1_Dm
  dataset: ADSL
  variable: AGE
  analysisSetId: AnalysisSet_02_SAF
  orderedGroupings:
  - order: 1
    groupingId: AnlsGrouping_01_Trt
    resultsByGroup: false
  programmingCode:
    context: SAS Version 9.4
    code: 'proc glm data=ADSL;

      class TRT01A;

      model AGE=TRT01A;

      ods output OverallANOVA=results.ANOVAGE (where=(source = ''Model''));

      run;'
  results:
  - operationId: Mth04_ContVar_Comp_Anova_1_pval
    resultGroups:
    - groupingId: AnlsGrouping_01_Trt
    rawValue: '0.5934357753'
    formattedValue: '0.5934'
- name: Summary of Subjects by Treatment and Age Group
  label: Age Group
  id: An03_02_AgeGrp_Summ_ByTrt
  reason:
    controlledTerm: SPECIFIED IN SAP
  purpose:
    controlledTerm: PRIMARY OUTCOME MEASURE
  methodId: Mth01_CatVar_Summ_ByGrp
  version: 1
  documentRefs:
  - referenceDocumentId: CDISCPILOT01_SAP
    pageRefs:
    - refType: PhysicalRef
      label: 9.2. Demographic and Baseline Characteristics
      pageNumbers:
      - 13
  categoryIds:
  - Catn_01_Grp_1_Pop
  - Catn_02_Dclass_1_Sbj
  - Catn_03_SbjDType_1_Dm
  dataset: ADSL
  variable: USUBJID
  analysisSetId: AnalysisSet_02_SAF
  orderedGroupings:
  - order: 1
    groupingId: AnlsGrouping_01_Trt
    resultsByGroup: true
  - order: 2
    groupingId: AnlsGrouping_03_AgeGp
    resultsByGroup: true
  referencedAnalysisOperations:
  - referencedOperationRelationshipId: Mth01_CatVar_Summ_ByGrp_2_pct_NUM
    analysisId: An03_02_AgeGrp_Summ_ByTrt
  - referencedOperationRelationshipId: Mth01_CatVar_Summ_ByGrp_2_pct_DEN
    analysisId: An01_05_SAF_Summ_ByTrt
  results:
  - operationId: Mth01_CatVar_Summ_ByGrp_1_n
    resultGroups:
    - groupingId: AnlsGrouping_01_Trt
      groupId: AnlsGrouping_01_Trt_1
    - groupingId: AnlsGrouping_03_AgeGp
      groupId: AnlsGrouping_03_AgeGp_1
    rawValue: '14'
    formattedValue: '14'
  - operationId: Mth01_CatVar_Summ_ByGrp_1_n
    resultGroups:
    - groupingId: AnlsGrouping_01_Trt
      groupId: AnlsGrouping_01_Trt_1
    - groupingId: AnlsGrouping_03_AgeGp
      groupId: AnlsGrouping_03_AgeGp_2
    rawValue: '72'
    formattedValue: '72'
  - operationId: Mth01_CatVar_Summ_ByGrp_1_n
    resultGroups:
    - groupingId: AnlsGrouping_01_Trt
      groupId: AnlsGrouping_01_Trt_2
    - groupingId: AnlsGrouping_03_AgeGp
      groupId: AnlsGrouping_03_AgeGp_1
    rawValue: '8'
    formattedValue: '8'
  - operationId: Mth01_CatVar_Summ_ByGrp_1_n
    resultGroups:
    - groupingId: AnlsGrouping_01_Trt
      groupId: AnlsGrouping_01_Trt_2
    - groupingId: AnlsGrouping_03_AgeGp
      groupId: AnlsGrouping_03_AgeGp_2
    rawValue: '76'
    formattedValue: '76'
  - operationId: Mth01_CatVar_Summ_ByGrp_1_n
    resultGroups:
    - groupingId: AnlsGrouping_01_Trt
      groupId: AnlsGrouping_01_Trt_3
    - groupingId: AnlsGrouping_03_AgeGp
      groupId: AnlsGrouping_03_AgeGp_1
    rawValue: '11'
    formattedValue: '11'
  - operationId: Mth01_CatVar_Summ_ByGrp_1_n
    resultGroups:
    - groupingId: AnlsGrouping_01_Trt
      groupId: AnlsGrouping_01_Trt_3
    - groupingId: AnlsGrouping_03_AgeGp
      groupId: AnlsGrouping_03_AgeGp_2
    rawValue: '73'
    formattedValue: '73'
  - operationId: Mth01_CatVar_Summ_ByGrp_2_pct
    resultGroups:
    - groupingId: AnlsGrouping_01_Trt
      groupId: AnlsGrouping_01_Trt_1
    - groupingId: AnlsGrouping_03_AgeGp
      groupId: AnlsGrouping_03_AgeGp_1
    rawValue: '16.27906976744186'
    formattedValue: ( 16.3)
  - operationId: Mth01_CatVar_Summ_ByGrp_2_pct
    resultGroups:
    - groupingId: AnlsGrouping_01_Trt
      groupId: AnlsGrouping_01_Trt_1
    - groupingId: AnlsGrouping_03_AgeGp
      groupId: AnlsGrouping_03_AgeGp_2
    rawValue: '83.72093023255815'
    formattedValue: ( 83.7)
  - operationId: Mth01_CatVar_Summ_ByGrp_2_pct
    resultGroups:
    - groupingId: AnlsGrouping_01_Trt
      groupId: AnlsGrouping_01_Trt_2
    - groupingId: AnlsGrouping_03_AgeGp
      groupId: AnlsGrouping_03_AgeGp_1
    rawValue: '9.523809523809524'
    formattedValue: (  9.5)
  - operationId: Mth01_CatVar_Summ_ByGrp_2_pct
    resultGroups:
    - groupingId: AnlsGrouping_01_Trt
      groupId: AnlsGrouping_01_Trt_2
    - groupingId: AnlsGrouping_03_AgeGp
      groupId: AnlsGrouping_03_AgeGp_2
    rawValue: '90.47619047619048'
    formattedValue: ( 90.5)
  - operationId: Mth01_CatVar_Summ_ByGrp_2_pct
    resultGroups:
    - groupingId: AnlsGrouping_01_Trt
      groupId: AnlsGrouping_01_Trt_3
    - groupingId: AnlsGrouping_03_AgeGp
      groupId: AnlsGrouping_03_AgeGp_1
    rawValue: '13.095238095238095'
    formattedValue: ( 13.1)
  - operationId: Mth01_CatVar_Summ_ByGrp_2_pct
    resultGroups:
    - groupingId: AnlsGrouping_01_Trt
      groupId: AnlsGrouping_01_Trt_3
    - groupingId: AnlsGrouping_03_AgeGp
      groupId: AnlsGrouping_03_AgeGp_2
    rawValue: '86.9047619047619'
    formattedValue: ( 86.9)
- name: Comparison of Age Group by Treatment
  label: Age Group
  id: An03_02_AgeGrp_Comp_ByTrt
  reason:
    controlledTerm: SPECIFIED IN SAP
  purpose:
    controlledTerm: PRIMARY OUTCOME MEASURE
  methodId: Mth03_CatVar_Comp_PChiSq
  version: 1
  documentRefs:
  - referenceDocumentId: CDISCPILOT01_SAP
    pageRefs:
    - refType: PhysicalRef
      label: 9.2. Demographic and Baseline Characteristics
      pageNumbers:
      - 13
  categoryIds:
  - Catn_01_Grp_1_Pop
  - Catn_02_Dclass_1_Sbj
  - Catn_03_SbjDType_1_Dm
  dataset: ADSL
  variable: USUBJID
  analysisSetId: AnalysisSet_02_SAF
  orderedGroupings:
  - order: 1
    groupingId: AnlsGrouping_01_Trt
    resultsByGroup: false
  - order: 2
    groupingId: AnlsGrouping_03_AgeGp
    resultsByGroup: false
  programmingCode:
    context: SAS Version 9.4
    code: "proc freq data=ADSL;\ntable TRT01A*AGEGR1/chisq;\nexact pchi; \nods output\
      \ PearsonChiSq=results.PCHIAGEGR1;\nrun;"
  results:
  - operationId: Mth03_CatVar_Comp_PChiSq_1_pval
    resultGroups:
    - groupingId: AnlsGrouping_01_Trt
    - groupingId: AnlsGrouping_03_AgeGp
    rawValue: '0.4238788486'
    formattedValue: '0.4239'
- name: Summary of Subjects by Treatment and Sex
  label: Sex
  id: An03_03_Sex_Summ_ByTrt
  reason:
    controlledTerm: SPECIFIED IN SAP
  purpose:
    controlledTerm: PRIMARY OUTCOME MEASURE
  methodId: Mth01_CatVar_Summ_ByGrp
  version: 1
  documentRefs:
  - referenceDocumentId: CDISCPILOT01_SAP
    pageRefs:
    - refType: PhysicalRef
      label: 9.2. Demographic and Baseline Characteristics
      pageNumbers:
      - 13
  categoryIds:
  - Catn_01_Grp_1_Pop
  - Catn_02_Dclass_1_Sbj
  - Catn_03_SbjDType_1_Dm
  dataset: ADSL
  variable: USUBJID
  analysisSetId: AnalysisSet_02_SAF
  orderedGroupings:
  - order: 1
    groupingId: AnlsGrouping_01_Trt
    resultsByGroup: true
  - order: 2
    groupingId: AnlsGrouping_02_Sex
    resultsByGroup: true
  referencedAnalysisOperations:
  - referencedOperationRelationshipId: Mth01_CatVar_Summ_ByGrp_2_pct_NUM
    analysisId: An03_03_Sex_Summ_ByTrt
  - referencedOperationRelationshipId: Mth01_CatVar_Summ_ByGrp_2_pct_DEN
    analysisId: An01_05_SAF_Summ_ByTrt
  results:
  - operationId: Mth01_CatVar_Summ_ByGrp_1_n
    resultGroups:
    - groupingId: AnlsGrouping_01_Trt
      groupId: AnlsGrouping_01_Trt_1
    - groupingId: AnlsGrouping_02_Sex
      groupId: AnlsGrouping_02_Sex_1
    rawValue: '33'
    formattedValue: '33'
  - operationId: Mth01_CatVar_Summ_ByGrp_1_n
    resultGroups:
    - groupingId: AnlsGrouping_01_Trt
      groupId: AnlsGrouping_01_Trt_1
    - groupingId: AnlsGrouping_02_Sex
      groupId: AnlsGrouping_02_Sex_2
    rawValue: '53'
    formattedValue: '53'
  - operationId: Mth01_CatVar_Summ_ByGrp_1_n
    resultGroups:
    - groupingId: AnlsGrouping_01_Trt
      groupId: AnlsGrouping_01_Trt_2
    - groupingId: AnlsGrouping_02_Sex
      groupId: AnlsGrouping_02_Sex_1
    rawValue: '34'
    formattedValue: '34'
  - operationId: Mth01_CatVar_Summ_ByGrp_1_n
    resultGroups:
    - groupingId: AnlsGrouping_01_Trt
      groupId: AnlsGrouping_01_Trt_2
    - groupingId: AnlsGrouping_02_Sex
      groupId: AnlsGrouping_02_Sex_2
    rawValue: '50'
    formattedValue: '50'
  - operationId: Mth01_CatVar_Summ_ByGrp_1_n
    resultGroups:
    - groupingId: AnlsGrouping_01_Trt
      groupId: AnlsGrouping_01_Trt_3
    - groupingId: AnlsGrouping_02_Sex
      groupId: AnlsGrouping_02_Sex_1
    rawValue: '44'
    formattedValue: '44'
  - operationId: Mth01_CatVar_Summ_ByGrp_1_n
    resultGroups:
    - groupingId: AnlsGrouping_01_Trt
      groupId: AnlsGrouping_01_Trt_3
    - groupingId: AnlsGrouping_02_Sex
      groupId: AnlsGrouping_02_Sex_2
    rawValue: '40'
    formattedValue: '40'
  - operationId: Mth01_CatVar_Summ_ByGrp_2_pct
    resultGroups:
    - groupingId: AnlsGrouping_01_Trt
      groupId: AnlsGrouping_01_Trt_1
    - groupingId: AnlsGrouping_02_Sex
      groupId: AnlsGrouping_02_Sex_1
    rawValue: '38.372093023255815'
    formattedValue: ( 38.4)
  - operationId: Mth01_CatVar_Summ_ByGrp_2_pct
    resultGroups:
    - groupingId: AnlsGrouping_01_Trt
      groupId: AnlsGrouping_01_Trt_1
    - groupingId: AnlsGrouping_02_Sex
      groupId: AnlsGrouping_02_Sex_2
    rawValue: '61.627906976744185'
    formattedValue: ( 61.6)
  - operationId: Mth01_CatVar_Summ_ByGrp_2_pct
    resultGroups:
    - groupingId: AnlsGrouping_01_Trt
      groupId: AnlsGrouping_01_Trt_2
    - groupingId: AnlsGrouping_02_Sex
      groupId: AnlsGrouping_02_Sex_1
    rawValue: '40.476190476190474'
    formattedValue: ( 40.5)
  - operationId: Mth01_CatVar_Summ_ByGrp_2_pct
    resultGroups:
    - groupingId: AnlsGrouping_01_Trt
      groupId: AnlsGrouping_01_Trt_2
    - groupingId: AnlsGrouping_02_Sex
      groupId: AnlsGrouping_02_Sex_2
    rawValue: '59.523809523809526'
    formattedValue: ( 59.5)
  - operationId: Mth01_CatVar_Summ_ByGrp_2_pct
    resultGroups:
    - groupingId: AnlsGrouping_01_Trt
      groupId: AnlsGrouping_01_Trt_3
    - groupingId: AnlsGrouping_02_Sex
      groupId: AnlsGrouping_02_Sex_1
    rawValue: '52.38095238095238'
    formattedValue: ( 52.4)
  - operationId: Mth01_CatVar_Summ_ByGrp_2_pct
    resultGroups:
    - groupingId: AnlsGrouping_01_Trt
      groupId: AnlsGrouping_01_Trt_3
    - groupingId: AnlsGrouping_02_Sex
      groupId: AnlsGrouping_02_Sex_2
    rawValue: '47.61904761904762'
    formattedValue: ( 47.6)
- name: Comparison of Sex by Treatment
  label: Sex
  id: An03_03_Sex_Comp_ByTrt
  reason:
    controlledTerm: SPECIFIED IN SAP
  purpose:
    controlledTerm: PRIMARY OUTCOME MEASURE
  methodId: Mth03_CatVar_Comp_PChiSq
  version: 1
  documentRefs:
  - referenceDocumentId: CDISCPILOT01_SAP
    pageRefs:
    - refType: PhysicalRef
      label: 9.2. Demographic and Baseline Characteristics
      pageNumbers:
      - 13
  categoryIds:
  - Catn_01_Grp_1_Pop
  - Catn_02_Dclass_1_Sbj
  - Catn_03_SbjDType_1_Dm
  dataset: ADSL
  variable: USUBJID
  analysisSetId: AnalysisSet_02_SAF
  orderedGroupings:
  - order: 1
    groupingId: AnlsGrouping_01_Trt
    resultsByGroup: false
  - order: 2
    groupingId: AnlsGrouping_02_Sex
    resultsByGroup: false
  programmingCode:
    context: SAS Version 9.4
    code: "proc freq data=ADSL;\ntable TRT01A*SEX/chisq;\nexact pchi; \nods output\
      \ PearsonChiSq=results.PCHISEX;\nrun;"
  results:
  - operationId: Mth03_CatVar_Comp_PChiSq_1_pval
    resultGroups:
    - groupingId: AnlsGrouping_01_Trt
    - groupingId: AnlsGrouping_02_Sex
    rawValue: '0.1408598286'
    formattedValue: '0.1409'
- name: Summary of Subjects by Treatment and Ethnicity
  label: Ethnicity
  id: An03_04_Ethnic_Summ_ByTrt
  reason:
    controlledTerm: SPECIFIED IN SAP
  purpose:
    controlledTerm: PRIMARY OUTCOME MEASURE
  methodId: Mth01_CatVar_Summ_ByGrp
  version: 1
  documentRefs:
  - referenceDocumentId: CDISCPILOT01_SAP
    pageRefs:
    - refType: PhysicalRef
      label: 9.2. Demographic and Baseline Characteristics
      pageNumbers:
      - 13
  categoryIds:
  - Catn_01_Grp_1_Pop
  - Catn_02_Dclass_1_Sbj
  - Catn_03_SbjDType_1_Dm
  dataset: ADSL
  variable: USUBJID
  analysisSetId: AnalysisSet_02_SAF
  orderedGroupings:
  - order: 1
    groupingId: AnlsGrouping_01_Trt
    resultsByGroup: true
  - order: 2
    groupingId: AnlsGrouping_05_Ethnic
    resultsByGroup: true
  referencedAnalysisOperations:
  - referencedOperationRelationshipId: Mth01_CatVar_Summ_ByGrp_2_pct_NUM
    analysisId: An03_04_Ethnic_Summ_ByTrt
  - referencedOperationRelationshipId: Mth01_CatVar_Summ_ByGrp_2_pct_DEN
    analysisId: An01_05_SAF_Summ_ByTrt
  results:
  - operationId: Mth01_CatVar_Summ_ByGrp_1_n
    resultGroups:
    - groupingId: AnlsGrouping_01_Trt
      groupId: AnlsGrouping_01_Trt_1
    - groupingId: AnlsGrouping_05_Ethnic
      groupId: AnlsGrouping_05_Ethnic_1
    rawValue: '3'
    formattedValue: '3'
  - operationId: Mth01_CatVar_Summ_ByGrp_1_n
    resultGroups:
    - groupingId: AnlsGrouping_01_Trt
      groupId: AnlsGrouping_01_Trt_1
    - groupingId: AnlsGrouping_05_Ethnic
      groupId: AnlsGrouping_05_Ethnic_2
    rawValue: '83'
    formattedValue: '83'
  - operationId: Mth01_CatVar_Summ_ByGrp_1_n
    resultGroups:
    - groupingId: AnlsGrouping_01_Trt
      groupId: AnlsGrouping_01_Trt_2
    - groupingId: AnlsGrouping_05_Ethnic
      groupId: AnlsGrouping_05_Ethnic_1
    rawValue: '3'
    formattedValue: '3'
  - operationId: Mth01_CatVar_Summ_ByGrp_1_n
    resultGroups:
    - groupingId: AnlsGrouping_01_Trt
      groupId: AnlsGrouping_01_Trt_2
    - groupingId: AnlsGrouping_05_Ethnic
      groupId: AnlsGrouping_05_Ethnic_2
    rawValue: '81'
    formattedValue: '81'
  - operationId: Mth01_CatVar_Summ_ByGrp_1_n
    resultGroups:
    - groupingId: AnlsGrouping_01_Trt
      groupId: AnlsGrouping_01_Trt_3
    - groupingId: AnlsGrouping_05_Ethnic
      groupId: AnlsGrouping_05_Ethnic_1
    rawValue: '6'
    formattedValue: '6'
  - operationId: Mth01_CatVar_Summ_ByGrp_1_n
    resultGroups:
    - groupingId: AnlsGrouping_01_Trt
      groupId: AnlsGrouping_01_Trt_3
    - groupingId: AnlsGrouping_05_Ethnic
      groupId: AnlsGrouping_05_Ethnic_2
    rawValue: '78'
    formattedValue: '78'
  - operationId: Mth01_CatVar_Summ_ByGrp_2_pct
    resultGroups:
    - groupingId: AnlsGrouping_01_Trt
      groupId: AnlsGrouping_01_Trt_1
    - groupingId: AnlsGrouping_05_Ethnic
      groupId: AnlsGrouping_05_Ethnic_1
    rawValue: '3.488372093023256'
    formattedValue: (  3.5)
  - operationId: Mth01_CatVar_Summ_ByGrp_2_pct
    resultGroups:
    - groupingId: AnlsGrouping_01_Trt
      groupId: AnlsGrouping_01_Trt_1
    - groupingId: AnlsGrouping_05_Ethnic
      groupId: AnlsGrouping_05_Ethnic_2
    rawValue: '96.51162790697674'
    formattedValue: ( 96.5)
  - operationId: Mth01_CatVar_Summ_ByGrp_2_pct
    resultGroups:
    - groupingId: AnlsGrouping_01_Trt
      groupId: AnlsGrouping_01_Trt_2
    - groupingId: AnlsGrouping_05_Ethnic
      groupId: AnlsGrouping_05_Ethnic_1
    rawValue: '3.5714285714285716'
    formattedValue: (  3.6)
  - operationId: Mth01_CatVar_Summ_ByGrp_2_pct
    resultGroups:
    - groupingId: AnlsGrouping_01_Trt
      groupId: AnlsGrouping_01_Trt_2
    - groupingId: AnlsGrouping_05_Ethnic
      groupId: AnlsGrouping_05_Ethnic_2
    rawValue: '96.42857142857143'
    formattedValue: ( 96.4)
  - operationId: Mth01_CatVar_Summ_ByGrp_2_pct
    resultGroups:
    - groupingId: AnlsGrouping_01_Trt
      groupId: AnlsGrouping_01_Trt_3
    - groupingId: AnlsGrouping_05_Ethnic
      groupId: AnlsGrouping_05_Ethnic_1
    rawValue: '7.142857142857143'
    formattedValue: (  7.1)
  - operationId: Mth01_CatVar_Summ_ByGrp_2_pct
    resultGroups:
    - groupingId: AnlsGrouping_01_Trt
      groupId: AnlsGrouping_01_Trt_3
    - groupingId: AnlsGrouping_05_Ethnic
      groupId: AnlsGrouping_05_Ethnic_2
    rawValue: '92.85714285714286'
    formattedValue: ( 92.9)
- name: Comparison of Ethnicity by Treatment
  label: Ethnicity
  id: An03_04_Ethnic_Comp_ByTrt
  reason:
    controlledTerm: SPECIFIED IN SAP
  purpose:
    controlledTerm: PRIMARY OUTCOME MEASURE
  methodId: Mth03_CatVar_Comp_PChiSq
  version: 1
  documentRefs:
  - referenceDocumentId: CDISCPILOT01_SAP
    pageRefs:
    - refType: PhysicalRef
      label: 9.2. Demographic and Baseline Characteristics
      pageNumbers:
      - 13
  categoryIds:
  - Catn_01_Grp_1_Pop
  - Catn_02_Dclass_1_Sbj
  - Catn_03_SbjDType_1_Dm
  dataset: ADSL
  variable: USUBJID
  analysisSetId: AnalysisSet_02_SAF
  orderedGroupings:
  - order: 1
    groupingId: AnlsGrouping_01_Trt
    resultsByGroup: false
  - order: 2
    groupingId: AnlsGrouping_05_Ethnic
    resultsByGroup: false
  programmingCode:
    context: SAS Version 9.4
    code: "proc freq data=ADSL;\ntable TRT01A*ETHNIC/chisq;\nexact pchi; \nods output\
      \ PearsonChiSq=results.PCHIETHNIC;\nrun;"
  results:
  - operationId: Mth03_CatVar_Comp_PChiSq_1_pval
    resultGroups:
    - groupingId: AnlsGrouping_01_Trt
    - groupingId: AnlsGrouping_05_Ethnic
    rawValue: '0.4423119445'
    formattedValue: '0.4423'
- name: Summary of Subjects by Treatment and Race
  label: Race
  id: An03_05_Race_Summ_ByTrt
  reason:
    controlledTerm: SPECIFIED IN SAP
  purpose:
    controlledTerm: PRIMARY OUTCOME MEASURE
  methodId: Mth01_CatVar_Summ_ByGrp
  version: 1
  documentRefs:
  - referenceDocumentId: CDISCPILOT01_SAP
    pageRefs:
    - refType: PhysicalRef
      label: 9.2. Demographic and Baseline Characteristics
      pageNumbers:
      - 13
  categoryIds:
  - Catn_01_Grp_1_Pop
  - Catn_02_Dclass_1_Sbj
  - Catn_03_SbjDType_1_Dm
  dataset: ADSL
  variable: USUBJID
  analysisSetId: AnalysisSet_02_SAF
  orderedGroupings:
  - order: 1
    groupingId: AnlsGrouping_01_Trt
    resultsByGroup: true
  - order: 2
    groupingId: AnlsGrouping_04_Race
    resultsByGroup: true
  referencedAnalysisOperations:
  - referencedOperationRelationshipId: Mth01_CatVar_Summ_ByGrp_2_pct_NUM
    analysisId: An03_05_Race_Summ_ByTrt
  - referencedOperationRelationshipId: Mth01_CatVar_Summ_ByGrp_2_pct_DEN
    analysisId: An01_05_SAF_Summ_ByTrt
  results:
  - operationId: Mth01_CatVar_Summ_ByGrp_1_n
    resultGroups:
    - groupingId: AnlsGrouping_01_Trt
      groupId: AnlsGrouping_01_Trt_1
    - groupingId: AnlsGrouping_04_Race
      groupId: AnlsGrouping_04_Race_1
    rawValue: '0'
    formattedValue: '0'
  - operationId: Mth01_CatVar_Summ_ByGrp_1_n
    resultGroups:
    - groupingId: AnlsGrouping_01_Trt
      groupId: AnlsGrouping_01_Trt_1
    - groupingId: AnlsGrouping_04_Race
      groupId: AnlsGrouping_04_Race_2
    rawValue: '0'
    formattedValue: '0'
  - operationId: Mth01_CatVar_Summ_ByGrp_1_n
    resultGroups:
    - groupingId: AnlsGrouping_01_Trt
      groupId: AnlsGrouping_01_Trt_1
    - groupingId: AnlsGrouping_04_Race
      groupId: AnlsGrouping_04_Race_3
    rawValue: '8'
    formattedValue: '8'
  - operationId: Mth01_CatVar_Summ_ByGrp_1_n
    resultGroups:
    - groupingId: AnlsGrouping_01_Trt
      groupId: AnlsGrouping_01_Trt_1
    - groupingId: AnlsGrouping_04_Race
      groupId: AnlsGrouping_04_Race_4
    rawValue: '0'
    formattedValue: '0'
  - operationId: Mth01_CatVar_Summ_ByGrp_1_n
    resultGroups:
    - groupingId: AnlsGrouping_01_Trt
      groupId: AnlsGrouping_01_Trt_1
    - groupingId: AnlsGrouping_04_Race
      groupId: AnlsGrouping_04_Race_5
    rawValue: '78'
    formattedValue: '78'
  - operationId: Mth01_CatVar_Summ_ByGrp_1_n
    resultGroups:
    - groupingId: AnlsGrouping_01_Trt
      groupId: AnlsGrouping_01_Trt_1
    - groupingId: AnlsGrouping_04_Race
      groupId: AnlsGrouping_04_Race_6
    rawValue: '0'
    formattedValue: '0'
  - operationId: Mth01_CatVar_Summ_ByGrp_1_n
    resultGroups:
    - groupingId: AnlsGrouping_01_Trt
      groupId: AnlsGrouping_01_Trt_1
    - groupingId: AnlsGrouping_04_Race
      groupId: AnlsGrouping_04_Race_7
    rawValue: '0'
    formattedValue: '0'
  - operationId: Mth01_CatVar_Summ_ByGrp_1_n
    resultGroups:
    - groupingId: AnlsGrouping_01_Trt
      groupId: AnlsGrouping_01_Trt_1
    - groupingId: AnlsGrouping_04_Race
      groupId: AnlsGrouping_04_Race_8
    rawValue: '0'
    formattedValue: '0'
  - operationId: Mth01_CatVar_Summ_ByGrp_1_n
    resultGroups:
    - groupingId: AnlsGrouping_01_Trt
      groupId: AnlsGrouping_01_Trt_1
    - groupingId: AnlsGrouping_04_Race
      groupId: AnlsGrouping_04_Race_9
    rawValue: '0'
    formattedValue: '0'
  - operationId: Mth01_CatVar_Summ_ByGrp_1_n
    resultGroups:
    - groupingId: AnlsGrouping_01_Trt
      groupId: AnlsGrouping_01_Trt_2
    - groupingId: AnlsGrouping_04_Race
      groupId: AnlsGrouping_04_Race_1
    rawValue: '1'
    formattedValue: '1'
  - operationId: Mth01_CatVar_Summ_ByGrp_1_n
    resultGroups:
    - groupingId: AnlsGrouping_01_Trt
      groupId: AnlsGrouping_01_Trt_2
    - groupingId: AnlsGrouping_04_Race
      groupId: AnlsGrouping_04_Race_2
    rawValue: '0'
    formattedValue: '0'
  - operationId: Mth01_CatVar_Summ_ByGrp_1_n
    resultGroups:
    - groupingId: AnlsGrouping_01_Trt
      groupId: AnlsGrouping_01_Trt_2
    - groupingId: AnlsGrouping_04_Race
      groupId: AnlsGrouping_04_Race_3
    rawValue: '9'
    formattedValue: '9'
  - operationId: Mth01_CatVar_Summ_ByGrp_1_n
    resultGroups:
    - groupingId: AnlsGrouping_01_Trt
      groupId: AnlsGrouping_01_Trt_2
    - groupingId: AnlsGrouping_04_Race
      groupId: AnlsGrouping_04_Race_4
    rawValue: '0'
    formattedValue: '0'
  - operationId: Mth01_CatVar_Summ_ByGrp_1_n
    resultGroups:
    - groupingId: AnlsGrouping_01_Trt
      groupId: AnlsGrouping_01_Trt_2
    - groupingId: AnlsGrouping_04_Race
      groupId: AnlsGrouping_04_Race_5
    rawValue: '74'
    formattedValue: '74'
  - operationId: Mth01_CatVar_Summ_ByGrp_1_n
    resultGroups:
    - groupingId: AnlsGrouping_01_Trt
      groupId: AnlsGrouping_01_Trt_2
    - groupingId: AnlsGrouping_04_Race
      groupId: AnlsGrouping_04_Race_6
    rawValue: '0'
    formattedValue: '0'
  - operationId: Mth01_CatVar_Summ_ByGrp_1_n
    resultGroups:
    - groupingId: AnlsGrouping_01_Trt
      groupId: AnlsGrouping_01_Trt_2
    - groupingId: AnlsGrouping_04_Race
      groupId: AnlsGrouping_04_Race_7
    rawValue: '0'
    formattedValue: '0'
  - operationId: Mth01_CatVar_Summ_ByGrp_1_n
    resultGroups:
    - groupingId: AnlsGrouping_01_Trt
      groupId: AnlsGrouping_01_Trt_2
    - groupingId: AnlsGrouping_04_Race
      groupId: AnlsGrouping_04_Race_8
    rawValue: '0'
    formattedValue: '0'
  - operationId: Mth01_CatVar_Summ_ByGrp_1_n
    resultGroups:
    - groupingId: AnlsGrouping_01_Trt
      groupId: AnlsGrouping_01_Trt_2
    - groupingId: AnlsGrouping_04_Race
      groupId: AnlsGrouping_04_Race_9
    rawValue: '0'
    formattedValue: '0'
  - operationId: Mth01_CatVar_Summ_ByGrp_1_n
    resultGroups:
    - groupingId: AnlsGrouping_01_Trt
      groupId: AnlsGrouping_01_Trt_3
    - groupingId: AnlsGrouping_04_Race
      groupId: AnlsGrouping_04_Race_1
    rawValue: '0'
    formattedValue: '0'
  - operationId: Mth01_CatVar_Summ_ByGrp_1_n
    resultGroups:
    - groupingId: AnlsGrouping_01_Trt
      groupId: AnlsGrouping_01_Trt_3
    - groupingId: AnlsGrouping_04_Race
      groupId: AnlsGrouping_04_Race_2
    rawValue: '0'
    formattedValue: '0'
  - operationId: Mth01_CatVar_Summ_ByGrp_1_n
    resultGroups:
    - groupingId: AnlsGrouping_01_Trt
      groupId: AnlsGrouping_01_Trt_3
    - groupingId: AnlsGrouping_04_Race
      groupId: AnlsGrouping_04_Race_3
    rawValue: '6'
    formattedValue: '6'
  - operationId: Mth01_CatVar_Summ_ByGrp_1_n
    resultGroups:
    - groupingId: AnlsGrouping_01_Trt
      groupId: AnlsGrouping_01_Trt_3
    - groupingId: AnlsGrouping_04_Race
      groupId: AnlsGrouping_04_Race_4
    rawValue: '0'
    formattedValue: '0'
  - operationId: Mth01_CatVar_Summ_ByGrp_1_n
    resultGroups:
    - groupingId: AnlsGrouping_01_Trt
      groupId: AnlsGrouping_01_Trt_3
    - groupingId: AnlsGrouping_04_Race
      groupId: AnlsGrouping_04_Race_5
    rawValue: '78'
    formattedValue: '78'
  - operationId: Mth01_CatVar_Summ_ByGrp_1_n
    resultGroups:
    - groupingId: AnlsGrouping_01_Trt
      groupId: AnlsGrouping_01_Trt_3
    - groupingId: AnlsGrouping_04_Race
      groupId: AnlsGrouping_04_Race_6
    rawValue: '0'
    formattedValue: '0'
  - operationId: Mth01_CatVar_Summ_ByGrp_1_n
    resultGroups:
    - groupingId: AnlsGrouping_01_Trt
      groupId: AnlsGrouping_01_Trt_3
    - groupingId: AnlsGrouping_04_Race
      groupId: AnlsGrouping_04_Race_7
    rawValue: '0'
    formattedValue: '0'
  - operationId: Mth01_CatVar_Summ_ByGrp_1_n
    resultGroups:
    - groupingId: AnlsGrouping_01_Trt
      groupId: AnlsGrouping_01_Trt_3
    - groupingId: AnlsGrouping_04_Race
      groupId: AnlsGrouping_04_Race_8
    rawValue: '0'
    formattedValue: '0'
  - operationId: Mth01_CatVar_Summ_ByGrp_1_n
    resultGroups:
    - groupingId: AnlsGrouping_01_Trt
      groupId: AnlsGrouping_01_Trt_3
    - groupingId: AnlsGrouping_04_Race
      groupId: AnlsGrouping_04_Race_9
    rawValue: '0'
    formattedValue: '0'
  - operationId: Mth01_CatVar_Summ_ByGrp_2_pct
    resultGroups:
    - groupingId: AnlsGrouping_01_Trt
      groupId: AnlsGrouping_01_Trt_1
    - groupingId: AnlsGrouping_04_Race
      groupId: AnlsGrouping_04_Race_1
    rawValue: '0'
    formattedValue: (  0.0)
  - operationId: Mth01_CatVar_Summ_ByGrp_2_pct
    resultGroups:
    - groupingId: AnlsGrouping_01_Trt
      groupId: AnlsGrouping_01_Trt_1
    - groupingId: AnlsGrouping_04_Race
      groupId: AnlsGrouping_04_Race_2
    rawValue: '0'
    formattedValue: (  0.0)
  - operationId: Mth01_CatVar_Summ_ByGrp_2_pct
    resultGroups:
    - groupingId: AnlsGrouping_01_Trt
      groupId: AnlsGrouping_01_Trt_1
    - groupingId: AnlsGrouping_04_Race
      groupId: AnlsGrouping_04_Race_3
    rawValue: '9.30232558139535'
    formattedValue: (  9.3)
  - operationId: Mth01_CatVar_Summ_ByGrp_2_pct
    resultGroups:
    - groupingId: AnlsGrouping_01_Trt
      groupId: AnlsGrouping_01_Trt_1
    - groupingId: AnlsGrouping_04_Race
      groupId: AnlsGrouping_04_Race_4
    rawValue: '0'
    formattedValue: (  0.0)
  - operationId: Mth01_CatVar_Summ_ByGrp_2_pct
    resultGroups:
    - groupingId: AnlsGrouping_01_Trt
      groupId: AnlsGrouping_01_Trt_1
    - groupingId: AnlsGrouping_04_Race
      groupId: AnlsGrouping_04_Race_5
    rawValue: '90.69767441860465'
    formattedValue: ( 90.7)
  - operationId: Mth01_CatVar_Summ_ByGrp_2_pct
    resultGroups:
    - groupingId: AnlsGrouping_01_Trt
      groupId: AnlsGrouping_01_Trt_1
    - groupingId: AnlsGrouping_04_Race
      groupId: AnlsGrouping_04_Race_6
    rawValue: '0'
    formattedValue: (  0.0)
  - operationId: Mth01_CatVar_Summ_ByGrp_2_pct
    resultGroups:
    - groupingId: AnlsGrouping_01_Trt
      groupId: AnlsGrouping_01_Trt_1
    - groupingId: AnlsGrouping_04_Race
      groupId: AnlsGrouping_04_Race_7
    rawValue: '0'
    formattedValue: (  0.0)
  - operationId: Mth01_CatVar_Summ_ByGrp_2_pct
    resultGroups:
    - groupingId: AnlsGrouping_01_Trt
      groupId: AnlsGrouping_01_Trt_1
    - groupingId: AnlsGrouping_04_Race
      groupId: AnlsGrouping_04_Race_8
    rawValue: '0'
    formattedValue: (  0.0)
  - operationId: Mth01_CatVar_Summ_ByGrp_2_pct
    resultGroups:
    - groupingId: AnlsGrouping_01_Trt
      groupId: AnlsGrouping_01_Trt_1
    - groupingId: AnlsGrouping_04_Race
      groupId: AnlsGrouping_04_Race_9
    rawValue: '0'
    formattedValue: (  0.0)
  - operationId: Mth01_CatVar_Summ_ByGrp_2_pct
    resultGroups:
    - groupingId: AnlsGrouping_01_Trt
      groupId: AnlsGrouping_01_Trt_2
    - groupingId: AnlsGrouping_04_Race
      groupId: AnlsGrouping_04_Race_1
    rawValue: '1.1904761904761905'
    formattedValue: (  1.2)
  - operationId: Mth01_CatVar_Summ_ByGrp_2_pct
    resultGroups:
    - groupingId: AnlsGrouping_01_Trt
      groupId: AnlsGrouping_01_Trt_2
    - groupingId: AnlsGrouping_04_Race
      groupId: AnlsGrouping_04_Race_2
    rawValue: '0'
    formattedValue: (  0.0)
  - operationId: Mth01_CatVar_Summ_ByGrp_2_pct
    resultGroups:
    - groupingId: AnlsGrouping_01_Trt
      groupId: AnlsGrouping_01_Trt_2
    - groupingId: AnlsGrouping_04_Race
      groupId: AnlsGrouping_04_Race_3
    rawValue: '10.714285714285714'
    formattedValue: ( 10.7)
  - operationId: Mth01_CatVar_Summ_ByGrp_2_pct
    resultGroups:
    - groupingId: AnlsGrouping_01_Trt
      groupId: AnlsGrouping_01_Trt_2
    - groupingId: AnlsGrouping_04_Race
      groupId: AnlsGrouping_04_Race_4
    rawValue: '0'
    formattedValue: (  0.0)
  - operationId: Mth01_CatVar_Summ_ByGrp_2_pct
    resultGroups:
    - groupingId: AnlsGrouping_01_Trt
      groupId: AnlsGrouping_01_Trt_2
    - groupingId: AnlsGrouping_04_Race
      groupId: AnlsGrouping_04_Race_5
    rawValue: '88.0952380952381'
    formattedValue: ( 88.1)
  - operationId: Mth01_CatVar_Summ_ByGrp_2_pct
    resultGroups:
    - groupingId: AnlsGrouping_01_Trt
      groupId: AnlsGrouping_01_Trt_2
    - groupingId: AnlsGrouping_04_Race
      groupId: AnlsGrouping_04_Race_6
    rawValue: '0'
    formattedValue: (  0.0)
  - operationId: Mth01_CatVar_Summ_ByGrp_2_pct
    resultGroups:
    - groupingId: AnlsGrouping_01_Trt
      groupId: AnlsGrouping_01_Trt_2
    - groupingId: AnlsGrouping_04_Race
      groupId: AnlsGrouping_04_Race_7
    rawValue: '0'
    formattedValue: (  0.0)
  - operationId: Mth01_CatVar_Summ_ByGrp_2_pct
    resultGroups:
    - groupingId: AnlsGrouping_01_Trt
      groupId: AnlsGrouping_01_Trt_2
    - groupingId: AnlsGrouping_04_Race
      groupId: AnlsGrouping_04_Race_8
    rawValue: '0'
    formattedValue: (  0.0)
  - operationId: Mth01_CatVar_Summ_ByGrp_2_pct
    resultGroups:
    - groupingId: AnlsGrouping_01_Trt
      groupId: AnlsGrouping_01_Trt_2
    - groupingId: AnlsGrouping_04_Race
      groupId: AnlsGrouping_04_Race_9
    rawValue: '0'
    formattedValue: (  0.0)
  - operationId: Mth01_CatVar_Summ_ByGrp_2_pct
    resultGroups:
    - groupingId: AnlsGrouping_01_Trt
      groupId: AnlsGrouping_01_Trt_3
    - groupingId: AnlsGrouping_04_Race
      groupId: AnlsGrouping_04_Race_1
    rawValue: '0'
    formattedValue: (  0.0)
  - operationId: Mth01_CatVar_Summ_ByGrp_2_pct
    resultGroups:
    - groupingId: AnlsGrouping_01_Trt
      groupId: AnlsGrouping_01_Trt_3
    - groupingId: AnlsGrouping_04_Race
      groupId: AnlsGrouping_04_Race_2
    rawValue: '0'
    formattedValue: (  0.0)
  - operationId: Mth01_CatVar_Summ_ByGrp_2_pct
    resultGroups:
    - groupingId: AnlsGrouping_01_Trt
      groupId: AnlsGrouping_01_Trt_3
    - groupingId: AnlsGrouping_04_Race
      groupId: AnlsGrouping_04_Race_3
    rawValue: '7.142857142857143'
    formattedValue: (  7.1)
  - operationId: Mth01_CatVar_Summ_ByGrp_2_pct
    resultGroups:
    - groupingId: AnlsGrouping_01_Trt
      groupId: AnlsGrouping_01_Trt_3
    - groupingId: AnlsGrouping_04_Race
      groupId: AnlsGrouping_04_Race_4
    rawValue: '0'
    formattedValue: (  0.0)
  - operationId: Mth01_CatVar_Summ_ByGrp_2_pct
    resultGroups:
    - groupingId: AnlsGrouping_01_Trt
      groupId: AnlsGrouping_01_Trt_3
    - groupingId: AnlsGrouping_04_Race
      groupId: AnlsGrouping_04_Race_5
    rawValue: '92.85714285714286'
    formattedValue: ( 92.9)
  - operationId: Mth01_CatVar_Summ_ByGrp_2_pct
    resultGroups:
    - groupingId: AnlsGrouping_01_Trt
      groupId: AnlsGrouping_01_Trt_3
    - groupingId: AnlsGrouping_04_Race
      groupId: AnlsGrouping_04_Race_6
    rawValue: '0'
    formattedValue: (  0.0)
  - operationId: Mth01_CatVar_Summ_ByGrp_2_pct
    resultGroups:
    - groupingId: AnlsGrouping_01_Trt
      groupId: AnlsGrouping_01_Trt_3
    - groupingId: AnlsGrouping_04_Race
      groupId: AnlsGrouping_04_Race_7
    rawValue: '0'
    formattedValue: (  0.0)
  - operationId: Mth01_CatVar_Summ_ByGrp_2_pct
    resultGroups:
    - groupingId: AnlsGrouping_01_Trt
      groupId: AnlsGrouping_01_Trt_3
    - groupingId: AnlsGrouping_04_Race
      groupId: AnlsGrouping_04_Race_8
    rawValue: '0'
    formattedValue: (  0.0)
  - operationId: Mth01_CatVar_Summ_ByGrp_2_pct
    resultGroups:
    - groupingId: AnlsGrouping_01_Trt
      groupId: AnlsGrouping_01_Trt_3
    - groupingId: AnlsGrouping_04_Race
      groupId: AnlsGrouping_04_Race_9
    rawValue: '0'
    formattedValue: (  0.0)
- name: Comparison of Race by Treatment
  label: Race
  id: An03_05_Race_Comp_ByTrt
  reason:
    controlledTerm: SPECIFIED IN SAP
  purpose:
    controlledTerm: PRIMARY OUTCOME MEASURE
  methodId: Mth03_CatVar_Comp_PChiSq
  version: 1
  documentRefs:
  - referenceDocumentId: CDISCPILOT01_SAP
    pageRefs:
    - refType: PhysicalRef
      label: 9.2. Demographic and Baseline Characteristics
      pageNumbers:
      - 13
  categoryIds:
  - Catn_01_Grp_1_Pop
  - Catn_02_Dclass_1_Sbj
  - Catn_03_SbjDType_1_Dm
  dataset: ADSL
  variable: USUBJID
  analysisSetId: AnalysisSet_02_SAF
  orderedGroupings:
  - order: 1
    groupingId: AnlsGrouping_01_Trt
    resultsByGroup: false
  - order: 2
    groupingId: AnlsGrouping_04_Race
    resultsByGroup: false
  programmingCode:
    context: SAS Version 9.4
    code: "proc freq data=ADSL;\ntable TRT01A*RACE/chisq;\nexact pchi; \nods output\
      \ PearsonChiSq=results.PCHIRACE;\nrun;"
  results:
  - operationId: Mth03_CatVar_Comp_PChiSq_1_pval
    resultGroups:
    - groupingId: AnlsGrouping_01_Trt
    - groupingId: AnlsGrouping_04_Race
    rawValue: '0.6040304365'
    formattedValue: '0.6040'
- name: Summary of Height by Treatment
  label: Height
  id: An03_06_Height_Summ_ByTrt
  reason:
    controlledTerm: SPECIFIED IN SAP
  purpose:
    controlledTerm: PRIMARY OUTCOME MEASURE
  methodId: Mth02_ContVar_Summ_ByGrp
  version: 1
  documentRefs:
  - referenceDocumentId: CDISCPILOT01_SAP
    pageRefs:
    - refType: PhysicalRef
      label: 9.2. Demographic and Baseline Characteristics
      pageNumbers:
      - 13
  categoryIds:
  - Catn_01_Grp_1_Pop
  - Catn_02_Dclass_1_Sbj
  - Catn_03_SbjDType_1_Dm
  dataset: ADSL
  variable: HEIGHTBL
  analysisSetId: AnalysisSet_02_SAF
  orderedGroupings:
  - order: 1
    groupingId: AnlsGrouping_01_Trt
    resultsByGroup: true
  results:
  - operationId: Mth02_ContVar_Summ_ByGrp_1_n
    resultGroups:
    - groupingId: AnlsGrouping_01_Trt
      groupId: AnlsGrouping_01_Trt_1
    rawValue: '86'
    formattedValue: '86'
  - operationId: Mth02_ContVar_Summ_ByGrp_1_n
    resultGroups:
    - groupingId: AnlsGrouping_01_Trt
      groupId: AnlsGrouping_01_Trt_2
    rawValue: '84'
    formattedValue: '84'
  - operationId: Mth02_ContVar_Summ_ByGrp_1_n
    resultGroups:
    - groupingId: AnlsGrouping_01_Trt
      groupId: AnlsGrouping_01_Trt_3
    rawValue: '84'
    formattedValue: '84'
  - operationId: Mth02_ContVar_Summ_ByGrp_2_Mean
    resultGroups:
    - groupingId: AnlsGrouping_01_Trt
      groupId: AnlsGrouping_01_Trt_1
    rawValue: '162.5732558'
    formattedValue: '162.6'
  - operationId: Mth02_ContVar_Summ_ByGrp_2_Mean
    resultGroups:
    - groupingId: AnlsGrouping_01_Trt
      groupId: AnlsGrouping_01_Trt_2
    rawValue: '165.8202381'
    formattedValue: '165.8'
  - operationId: Mth02_ContVar_Summ_ByGrp_2_Mean
    resultGroups:
    - groupingId: AnlsGrouping_01_Trt
      groupId: AnlsGrouping_01_Trt_3
    rawValue: '163.4333333'
    formattedValue: '163.4'
  - operationId: Mth02_ContVar_Summ_ByGrp_3_SD
    resultGroups:
    - groupingId: AnlsGrouping_01_Trt
      groupId: AnlsGrouping_01_Trt_1
    rawValue: '11.5223611'
    formattedValue: (11.52)
  - operationId: Mth02_ContVar_Summ_ByGrp_3_SD
    resultGroups:
    - groupingId: AnlsGrouping_01_Trt
      groupId: AnlsGrouping_01_Trt_2
    rawValue: '10.41924'
    formattedValue: (10.42)
  - operationId: Mth02_ContVar_Summ_ByGrp_3_SD
    resultGroups:
    - groupingId: AnlsGrouping_01_Trt
      groupId: AnlsGrouping_01_Trt_3
    rawValue: '10.1313516'
    formattedValue: (10.13)
  - operationId: Mth02_ContVar_Summ_ByGrp_4_Median
    resultGroups:
    - groupingId: AnlsGrouping_01_Trt
      groupId: AnlsGrouping_01_Trt_1
    rawValue: '162.6'
    formattedValue: '162.6'
  - operationId: Mth02_ContVar_Summ_ByGrp_4_Median
    resultGroups:
    - groupingId: AnlsGrouping_01_Trt
      groupId: AnlsGrouping_01_Trt_2
    rawValue: '162.2'
    formattedValue: '162.2'
  - operationId: Mth02_ContVar_Summ_ByGrp_4_Median
    resultGroups:
    - groupingId: AnlsGrouping_01_Trt
      groupId: AnlsGrouping_01_Trt_3
    rawValue: '165.1'
    formattedValue: '165.1'
  - operationId: Mth02_ContVar_Summ_ByGrp_5_Q1
    resultGroups:
    - groupingId: AnlsGrouping_01_Trt
      groupId: AnlsGrouping_01_Trt_1
    rawValue: '153.7'
    formattedValue: '153.7'
  - operationId: Mth02_ContVar_Summ_ByGrp_5_Q1
    resultGroups:
    - groupingId: AnlsGrouping_01_Trt
      groupId: AnlsGrouping_01_Trt_2
    rawValue: '157.5'
    formattedValue: '157.5'
  - operationId: Mth02_ContVar_Summ_ByGrp_5_Q1
    resultGroups:
    - groupingId: AnlsGrouping_01_Trt
      groupId: AnlsGrouping_01_Trt_3
    rawValue: '157.5'
    formattedValue: '157.5'
  - operationId: Mth02_ContVar_Summ_ByGrp_6_Q3
    resultGroups:
    - groupingId: AnlsGrouping_01_Trt
      groupId: AnlsGrouping_01_Trt_1
    rawValue: '171.5'
    formattedValue: '171.5'
  - operationId: Mth02_ContVar_Summ_ByGrp_6_Q3
    resultGroups:
    - groupingId: AnlsGrouping_01_Trt
      groupId: AnlsGrouping_01_Trt_2
    rawValue: '170.2'
    formattedValue: '170.2'
  - operationId: Mth02_ContVar_Summ_ByGrp_6_Q3
    resultGroups:
    - groupingId: AnlsGrouping_01_Trt
      groupId: AnlsGrouping_01_Trt_3
    rawValue: '172.85'
    formattedValue: '172.9'
  - operationId: Mth02_ContVar_Summ_ByGrp_7_Min
    resultGroups:
    - groupingId: AnlsGrouping_01_Trt
      groupId: AnlsGrouping_01_Trt_1
    rawValue: '137.2'
    formattedValue: '137.2'
  - operationId: Mth02_ContVar_Summ_ByGrp_7_Min
    resultGroups:
    - groupingId: AnlsGrouping_01_Trt
      groupId: AnlsGrouping_01_Trt_2
    rawValue: '135.9'
    formattedValue: '135.9'
  - operationId: Mth02_ContVar_Summ_ByGrp_7_Min
    resultGroups:
    - groupingId: AnlsGrouping_01_Trt
      groupId: AnlsGrouping_01_Trt_3
    rawValue: '146.1'
    formattedValue: '146.1'
  - operationId: Mth02_ContVar_Summ_ByGrp_8_Max
    resultGroups:
    - groupingId: AnlsGrouping_01_Trt
      groupId: AnlsGrouping_01_Trt_1
    rawValue: '185.4'
    formattedValue: '185.4'
  - operationId: Mth02_ContVar_Summ_ByGrp_8_Max
    resultGroups:
    - groupingId: AnlsGrouping_01_Trt
      groupId: AnlsGrouping_01_Trt_2
    rawValue: '195.6'
    formattedValue: '195.6'
  - operationId: Mth02_ContVar_Summ_ByGrp_8_Max
    resultGroups:
    - groupingId: AnlsGrouping_01_Trt
      groupId: AnlsGrouping_01_Trt_3
    rawValue: '190.5'
    formattedValue: '190.5'
- name: Comparison of Height by Treatment
  label: Height
  id: An03_06_Height_Comp_ByTrt
  reason:
    controlledTerm: SPECIFIED IN SAP
  purpose:
    controlledTerm: PRIMARY OUTCOME MEASURE
  methodId: Mth04_ContVar_Comp_Anova
  version: 1
  documentRefs:
  - referenceDocumentId: CDISCPILOT01_SAP
    pageRefs:
    - refType: PhysicalRef
      label: 9.2. Demographic and Baseline Characteristics
      pageNumbers:
      - 13
  categoryIds:
  - Catn_01_Grp_1_Pop
  - Catn_02_Dclass_1_Sbj
  - Catn_03_SbjDType_1_Dm
  dataset: ADSL
  variable: HEIGHTBL
  analysisSetId: AnalysisSet_02_SAF
  orderedGroupings:
  - order: 1
    groupingId: AnlsGrouping_01_Trt
    resultsByGroup: false
  programmingCode:
    context: SAS Version 9.4
    code: 'proc glm data=ADSL;

      class TRT01A;

      model HEIGHTBL=TRT01A;

      ods output OverallANOVA=results.ANOVHEIGHTBL (where=(source = ''Model''));

      run;'
  results:
  - operationId: Mth04_ContVar_Comp_Anova_1_pval
    resultGroups:
    - groupingId: AnlsGrouping_01_Trt
    rawValue: '0.126217917'
    formattedValue: '0.1262'
- name: Summary of Subjects with At Least One TEAE, by Treatment
  label: TEAE
  id: An07_01_TEAE_Summ_ByTrt
  reason:
    controlledTerm: SPECIFIED IN SAP
  purpose:
    controlledTerm: PRIMARY OUTCOME MEASURE
  methodId: Mth01_CatVar_Summ_ByGrp
  version: 1
  documentRefs:
  - referenceDocumentId: CDISCPILOT01_SAP
    pageRefs:
    - refType: PhysicalRef
      label: 11.2. Adverse Events
      firstPage: 15
      lastPage: 16
  categoryIds:
  - Catn_01_Grp_2_Saf
  - Catn_02_Dclass_2_Evt
  - Catn_04_EvtDType_1_Ae
  - Catn_05_EvtAType_1_Occ
  dataset: ADAE
  variable: USUBJID
  analysisSetId: AnalysisSet_02_SAF
  dataSubsetId: Dss01_TEAE
  orderedGroupings:
  - order: 1
    groupingId: AnlsGrouping_01_Trt
    resultsByGroup: true
  referencedAnalysisOperations:
  - referencedOperationRelationshipId: Mth01_CatVar_Summ_ByGrp_2_pct_NUM
    analysisId: An07_01_TEAE_Summ_ByTrt
  - referencedOperationRelationshipId: Mth01_CatVar_Summ_ByGrp_2_pct_DEN
    analysisId: An01_05_SAF_Summ_ByTrt
  results:
  - operationId: Mth01_CatVar_Summ_ByGrp_1_n
    resultGroups:
    - groupingId: AnlsGrouping_01_Trt
      groupId: AnlsGrouping_01_Trt_1
    rawValue: '65'
    formattedValue: '65'
  - operationId: Mth01_CatVar_Summ_ByGrp_2_pct
    resultGroups:
    - groupingId: AnlsGrouping_01_Trt
      groupId: AnlsGrouping_01_Trt_1
    rawValue: '75.581395349'
    formattedValue: ( 75.6)
  - operationId: Mth01_CatVar_Summ_ByGrp_1_n
    resultGroups:
    - groupingId: AnlsGrouping_01_Trt
      groupId: AnlsGrouping_01_Trt_2
    rawValue: '77'
    formattedValue: '77'
  - operationId: Mth01_CatVar_Summ_ByGrp_2_pct
    resultGroups:
    - groupingId: AnlsGrouping_01_Trt
      groupId: AnlsGrouping_01_Trt_2
    rawValue: '91.666666667'
    formattedValue: ( 91.7)
  - operationId: Mth01_CatVar_Summ_ByGrp_1_n
    resultGroups:
    - groupingId: AnlsGrouping_01_Trt
      groupId: AnlsGrouping_01_Trt_3
    rawValue: '76'
    formattedValue: '76'
  - operationId: Mth01_CatVar_Summ_ByGrp_2_pct
    resultGroups:
    - groupingId: AnlsGrouping_01_Trt
      groupId: AnlsGrouping_01_Trt_3
    rawValue: '90.476190476'
    formattedValue: ( 90.5)
- name: Comparison of Subjects with TEAEs by Treatment - Placebo vs Low Dose
  id: An07_01_TEAE_Comp_ByTrt_PlacLow
  reason:
    sponsorTermId: TermEx1_1
  purpose:
    controlledTerm: SECONDARY OUTCOME MEASURE
  methodId: Mth05_CatVar_Comp_FishEx
  version: 1
  documentRefs:
  - referenceDocumentId: CDISCPILOT01_SAP
    pageRefs:
    - refType: PhysicalRef
      label: 11.2. Adverse Events
      firstPage: 15
      lastPage: 16
  categoryIds:
  - Catn_01_Grp_2_Saf
  - Catn_02_Dclass_2_Evt
  - Catn_04_EvtDType_1_Ae
  - Catn_05_EvtAType_1_Occ
  dataset: ADAE
  variable: USUBJID
  analysisSetId: AnalysisSet_02_SAF
  dataSubsetId: Dss11_TEAE_PlacLow
  orderedGroupings:
  - order: 1
    groupingId: AnlsGrouping_01_Trt
    resultsByGroup: false
  results:
  - operationId: Mth03_CatVar_Comp_FishEx_1_pval
    resultGroups:
    - groupingId: AnlsGrouping_01_Trt
    rawValue: '0.0065331294'
    formattedValue: '0.0065'
- name: Comparison of Subjects with TEAEs by Treatment - Placebo vs High Dose
  id: An07_01_TEAE_Comp_ByTrt_PlacHigh
  reason:
    sponsorTermId: TermEx1_1
  purpose:
    controlledTerm: SECONDARY OUTCOME MEASURE
  methodId: Mth05_CatVar_Comp_FishEx
  version: 1
  documentRefs:
  - referenceDocumentId: CDISCPILOT01_SAP
    pageRefs:
    - refType: PhysicalRef
      label: 11.2. Adverse Events
      firstPage: 15
      lastPage: 16
  categoryIds:
  - Catn_01_Grp_2_Saf
  - Catn_02_Dclass_2_Evt
  - Catn_04_EvtDType_1_Ae
  - Catn_05_EvtAType_1_Occ
  dataset: ADAE
  variable: USUBJID
  analysisSetId: AnalysisSet_02_SAF
  dataSubsetId: Dss12_TEAE_PlacHigh
  orderedGroupings:
  - order: 1
    groupingId: AnlsGrouping_01_Trt
    resultsByGroup: false
  results:
  - operationId: Mth03_CatVar_Comp_FishEx_1_pval
    resultGroups:
    - groupingId: AnlsGrouping_01_Trt
    rawValue: '0.0136376915'
    formattedValue: '0.0136'
- name: Summary of Subjects with At Least One Related TEAE, by Treatment
  label: Related TEAE
  id: An07_02_RelTEAE_Summ_ByTrt
  reason:
    sponsorTermId: TermEx1_1
  purpose:
    controlledTerm: SECONDARY OUTCOME MEASURE
  methodId: Mth01_CatVar_Summ_ByGrp
  version: 1
  categoryIds:
  - Catn_01_Grp_2_Saf
  - Catn_02_Dclass_2_Evt
  - Catn_04_EvtDType_1_Ae
  - Catn_05_EvtAType_1_Occ
  dataset: ADAE
  variable: USUBJID
  analysisSetId: AnalysisSet_02_SAF
  dataSubsetId: Dss02_Related_TEAE
  orderedGroupings:
  - order: 1
    groupingId: AnlsGrouping_01_Trt
    resultsByGroup: true
  referencedAnalysisOperations:
  - referencedOperationRelationshipId: Mth01_CatVar_Summ_ByGrp_2_pct_NUM
    analysisId: An07_02_RelTEAE_Summ_ByTrt
  - referencedOperationRelationshipId: Mth01_CatVar_Summ_ByGrp_2_pct_DEN
    analysisId: An01_05_SAF_Summ_ByTrt
  results:
  - operationId: Mth01_CatVar_Summ_ByGrp_1_n
    resultGroups:
    - groupingId: AnlsGrouping_01_Trt
      groupId: AnlsGrouping_01_Trt_1
    rawValue: '43'
    formattedValue: '43'
  - operationId: Mth01_CatVar_Summ_ByGrp_2_pct
    resultGroups:
    - groupingId: AnlsGrouping_01_Trt
      groupId: AnlsGrouping_01_Trt_1
    rawValue: '50'
    formattedValue: ( 50.0)
  - operationId: Mth01_CatVar_Summ_ByGrp_1_n
    resultGroups:
    - groupingId: AnlsGrouping_01_Trt
      groupId: AnlsGrouping_01_Trt_2
    rawValue: '72'
    formattedValue: '72'
  - operationId: Mth01_CatVar_Summ_ByGrp_2_pct
    resultGroups:
    - groupingId: AnlsGrouping_01_Trt
      groupId: AnlsGrouping_01_Trt_2
    rawValue: '85.71428571428571'
    formattedValue: ( 85.7)
  - operationId: Mth01_CatVar_Summ_ByGrp_1_n
    resultGroups:
    - groupingId: AnlsGrouping_01_Trt
      groupId: AnlsGrouping_01_Trt_3
    rawValue: '70'
    formattedValue: '70'
  - operationId: Mth01_CatVar_Summ_ByGrp_2_pct
    resultGroups:
    - groupingId: AnlsGrouping_01_Trt
      groupId: AnlsGrouping_01_Trt_3
    rawValue: '83.33333333333333'
    formattedValue: ( 83.3)
- name: Summary of Subjects with At Least One Serious TEAE, by Treatment
  label: Serious TEAE
  id: An07_03_SerTEAE_Summ_ByTrt
  reason:
    sponsorTermId: TermEx1_1
  purpose:
    controlledTerm: SECONDARY OUTCOME MEASURE
  methodId: Mth01_CatVar_Summ_ByGrp
  version: 1
  categoryIds:
  - Catn_01_Grp_2_Saf
  - Catn_02_Dclass_2_Evt
  - Catn_04_EvtDType_1_Ae
  - Catn_05_EvtAType_1_Occ
  dataset: ADAE
  variable: USUBJID
  analysisSetId: AnalysisSet_02_SAF
  dataSubsetId: Dss03_Serious_TEAE
  orderedGroupings:
  - order: 1
    groupingId: AnlsGrouping_01_Trt
    resultsByGroup: true
  referencedAnalysisOperations:
  - referencedOperationRelationshipId: Mth01_CatVar_Summ_ByGrp_2_pct_NUM
    analysisId: An07_03_SerTEAE_Summ_ByTrt
  - referencedOperationRelationshipId: Mth01_CatVar_Summ_ByGrp_2_pct_DEN
    analysisId: An01_05_SAF_Summ_ByTrt
  results:
  - operationId: Mth01_CatVar_Summ_ByGrp_1_n
    resultGroups:
    - groupingId: AnlsGrouping_01_Trt
      groupId: AnlsGrouping_01_Trt_1
    rawValue: '0'
    formattedValue: '0'
  - operationId: Mth01_CatVar_Summ_ByGrp_2_pct
    resultGroups:
    - groupingId: AnlsGrouping_01_Trt
      groupId: AnlsGrouping_01_Trt_1
    rawValue: '0'
    formattedValue: (  0.0)
  - operationId: Mth01_CatVar_Summ_ByGrp_1_n
    resultGroups:
    - groupingId: AnlsGrouping_01_Trt
      groupId: AnlsGrouping_01_Trt_2
    rawValue: '1'
    formattedValue: '1'
  - operationId: Mth01_CatVar_Summ_ByGrp_2_pct
    resultGroups:
    - groupingId: AnlsGrouping_01_Trt
      groupId: AnlsGrouping_01_Trt_2
    rawValue: '1.1904761904761905'
    formattedValue: (  1.2)
  - operationId: Mth01_CatVar_Summ_ByGrp_1_n
    resultGroups:
    - groupingId: AnlsGrouping_01_Trt
      groupId: AnlsGrouping_01_Trt_3
    rawValue: '2'
    formattedValue: '2'
  - operationId: Mth01_CatVar_Summ_ByGrp_2_pct
    resultGroups:
    - groupingId: AnlsGrouping_01_Trt
      groupId: AnlsGrouping_01_Trt_3
    rawValue: '2.380952380952381'
    formattedValue: (  2.4)
- name: Summary of Subjects with At Least One Related Serious TEAE, by Treatment
  label: Related Serious TEAE
  id: An07_04_RelSerTEAE_Summ_ByTrt
  reason:
    sponsorTermId: TermEx1_1
  purpose:
    controlledTerm: SECONDARY OUTCOME MEASURE
  methodId: Mth01_CatVar_Summ_ByGrp
  version: 1
  categoryIds:
  - Catn_01_Grp_2_Saf
  - Catn_02_Dclass_2_Evt
  - Catn_04_EvtDType_1_Ae
  - Catn_05_EvtAType_1_Occ
  dataset: ADAE
  variable: USUBJID
  analysisSetId: AnalysisSet_02_SAF
  dataSubsetId: Dss04_RelSer_TEAE
  orderedGroupings:
  - order: 1
    groupingId: AnlsGrouping_01_Trt
    resultsByGroup: true
  referencedAnalysisOperations:
  - referencedOperationRelationshipId: Mth01_CatVar_Summ_ByGrp_2_pct_NUM
    analysisId: An07_04_RelSerTEAE_Summ_ByTrt
  - referencedOperationRelationshipId: Mth01_CatVar_Summ_ByGrp_2_pct_DEN
    analysisId: An01_05_SAF_Summ_ByTrt
  results:
  - operationId: Mth01_CatVar_Summ_ByGrp_1_n
    resultGroups:
    - groupingId: AnlsGrouping_01_Trt
      groupId: AnlsGrouping_01_Trt_1
    rawValue: '0'
    formattedValue: '0'
  - operationId: Mth01_CatVar_Summ_ByGrp_2_pct
    resultGroups:
    - groupingId: AnlsGrouping_01_Trt
      groupId: AnlsGrouping_01_Trt_1
    rawValue: '0'
    formattedValue: (  0.0)
  - operationId: Mth01_CatVar_Summ_ByGrp_1_n
    resultGroups:
    - groupingId: AnlsGrouping_01_Trt
      groupId: AnlsGrouping_01_Trt_2
    rawValue: '1'
    formattedValue: '1'
  - operationId: Mth01_CatVar_Summ_ByGrp_2_pct
    resultGroups:
    - groupingId: AnlsGrouping_01_Trt
      groupId: AnlsGrouping_01_Trt_2
    rawValue: '1.1904761904761905'
    formattedValue: (  1.2)
  - operationId: Mth01_CatVar_Summ_ByGrp_1_n
    resultGroups:
    - groupingId: AnlsGrouping_01_Trt
      groupId: AnlsGrouping_01_Trt_3
    rawValue: '1'
    formattedValue: '1'
  - operationId: Mth01_CatVar_Summ_ByGrp_2_pct
    resultGroups:
    - groupingId: AnlsGrouping_01_Trt
      groupId: AnlsGrouping_01_Trt_3
    rawValue: '1.1904761904761905'
    formattedValue: (  1.2)
- name: Summary of Subjects with At Least One TEAE Leading to Death, by Treatment
  label: TEAE Leading to Death
  id: An07_05_TEAELd2Dth_Summ_ByTrt
  reason:
    sponsorTermId: TermEx1_1
  purpose:
    controlledTerm: SECONDARY OUTCOME MEASURE
  methodId: Mth01_CatVar_Summ_ByGrp
  version: 1
  categoryIds:
  - Catn_01_Grp_2_Saf
  - Catn_02_Dclass_2_Evt
  - Catn_04_EvtDType_1_Ae
  - Catn_05_EvtAType_1_Occ
  dataset: ADAE
  variable: USUBJID
  analysisSetId: AnalysisSet_02_SAF
  dataSubsetId: Dss05_TEAE_Ld2Dth
  orderedGroupings:
  - order: 1
    groupingId: AnlsGrouping_01_Trt
    resultsByGroup: true
  referencedAnalysisOperations:
  - referencedOperationRelationshipId: Mth01_CatVar_Summ_ByGrp_2_pct_NUM
    analysisId: An07_05_TEAELd2Dth_Summ_ByTrt
  - referencedOperationRelationshipId: Mth01_CatVar_Summ_ByGrp_2_pct_DEN
    analysisId: An01_05_SAF_Summ_ByTrt
  results:
  - operationId: Mth01_CatVar_Summ_ByGrp_1_n
    resultGroups:
    - groupingId: AnlsGrouping_01_Trt
      groupId: AnlsGrouping_01_Trt_1
    rawValue: '2'
    formattedValue: '2'
  - operationId: Mth01_CatVar_Summ_ByGrp_2_pct
    resultGroups:
    - groupingId: AnlsGrouping_01_Trt
      groupId: AnlsGrouping_01_Trt_1
    rawValue: '2.3255813953488373'
    formattedValue: (  2.3)
  - operationId: Mth01_CatVar_Summ_ByGrp_1_n
    resultGroups:
    - groupingId: AnlsGrouping_01_Trt
      groupId: AnlsGrouping_01_Trt_2
    rawValue: '1'
    formattedValue: '1'
  - operationId: Mth01_CatVar_Summ_ByGrp_2_pct
    resultGroups:
    - groupingId: AnlsGrouping_01_Trt
      groupId: AnlsGrouping_01_Trt_2
    rawValue: '1.1904761904761905'
    formattedValue: (  1.2)
  - operationId: Mth01_CatVar_Summ_ByGrp_1_n
    resultGroups:
    - groupingId: AnlsGrouping_01_Trt
      groupId: AnlsGrouping_01_Trt_3
    rawValue: '0'
    formattedValue: '0'
  - operationId: Mth01_CatVar_Summ_ByGrp_2_pct
    resultGroups:
    - groupingId: AnlsGrouping_01_Trt
      groupId: AnlsGrouping_01_Trt_3
    rawValue: '0'
    formattedValue: (  0.0)
- name: Summary of Subjects with At Least One Related TEAE Leading to Death, by Treatment
  label: Related TEAE Leading to Death
  id: An07_06_RelTEAELd2Dth_Summ_ByTrt
  reason:
    sponsorTermId: TermEx1_1
  purpose:
    controlledTerm: SECONDARY OUTCOME MEASURE
  methodId: Mth01_CatVar_Summ_ByGrp
  version: 1
  categoryIds:
  - Catn_01_Grp_2_Saf
  - Catn_02_Dclass_2_Evt
  - Catn_04_EvtDType_1_Ae
  - Catn_05_EvtAType_1_Occ
  dataset: ADAE
  variable: USUBJID
  analysisSetId: AnalysisSet_02_SAF
  dataSubsetId: Dss06_Rel_TEAE_Ld2Dth
  orderedGroupings:
  - order: 1
    groupingId: AnlsGrouping_01_Trt
    resultsByGroup: true
  referencedAnalysisOperations:
  - referencedOperationRelationshipId: Mth01_CatVar_Summ_ByGrp_2_pct_NUM
    analysisId: An07_06_RelTEAELd2Dth_Summ_ByTrt
  - referencedOperationRelationshipId: Mth01_CatVar_Summ_ByGrp_2_pct_DEN
    analysisId: An01_05_SAF_Summ_ByTrt
  results:
  - operationId: Mth01_CatVar_Summ_ByGrp_1_n
    resultGroups:
    - groupingId: AnlsGrouping_01_Trt
      groupId: AnlsGrouping_01_Trt_1
    rawValue: '1'
    formattedValue: '1'
  - operationId: Mth01_CatVar_Summ_ByGrp_2_pct
    resultGroups:
    - groupingId: AnlsGrouping_01_Trt
      groupId: AnlsGrouping_01_Trt_1
    rawValue: '1.1627906976744187'
    formattedValue: (  1.2)
  - operationId: Mth01_CatVar_Summ_ByGrp_1_n
    resultGroups:
    - groupingId: AnlsGrouping_01_Trt
      groupId: AnlsGrouping_01_Trt_2
    rawValue: '0'
    formattedValue: '0'
  - operationId: Mth01_CatVar_Summ_ByGrp_2_pct
    resultGroups:
    - groupingId: AnlsGrouping_01_Trt
      groupId: AnlsGrouping_01_Trt_2
    rawValue: '0'
    formattedValue: (  0.0)
  - operationId: Mth01_CatVar_Summ_ByGrp_1_n
    resultGroups:
    - groupingId: AnlsGrouping_01_Trt
      groupId: AnlsGrouping_01_Trt_3
    rawValue: '0'
    formattedValue: '0'
  - operationId: Mth01_CatVar_Summ_ByGrp_2_pct
    resultGroups:
    - groupingId: AnlsGrouping_01_Trt
      groupId: AnlsGrouping_01_Trt_3
    rawValue: '0'
    formattedValue: (  0.0)
- name: Summary of Subjects with At Least One TEAE Leading to Dose Modification, by
    Treatment
  label: TEAE Leading to Dose Modification [a]
  id: An07_07_TEAELd2DoseMod_Summ_ByTrt
  reason:
    sponsorTermId: TermEx1_1
  purpose:
    controlledTerm: SECONDARY OUTCOME MEASURE
  methodId: Mth01_CatVar_Summ_ByGrp
  version: 1
  categoryIds:
  - Catn_01_Grp_2_Saf
  - Catn_02_Dclass_2_Evt
  - Catn_04_EvtDType_1_Ae
  - Catn_05_EvtAType_1_Occ
  dataset: ADAE
  variable: USUBJID
  analysisSetId: AnalysisSet_02_SAF
  dataSubsetId: Dss07_TEAE_Ld2DoseMod
  orderedGroupings:
  - order: 1
    groupingId: AnlsGrouping_01_Trt
    resultsByGroup: true
  referencedAnalysisOperations:
  - referencedOperationRelationshipId: Mth01_CatVar_Summ_ByGrp_2_pct_NUM
    analysisId: An07_07_TEAELd2DoseMod_Summ_ByTrt
  - referencedOperationRelationshipId: Mth01_CatVar_Summ_ByGrp_2_pct_DEN
    analysisId: An01_05_SAF_Summ_ByTrt
  results:
  - operationId: Mth01_CatVar_Summ_ByGrp_1_n
    resultGroups:
    - groupingId: AnlsGrouping_01_Trt
      groupId: AnlsGrouping_01_Trt_1
    rawValue: '0'
    formattedValue: '0'
  - operationId: Mth01_CatVar_Summ_ByGrp_2_pct
    resultGroups:
    - groupingId: AnlsGrouping_01_Trt
      groupId: AnlsGrouping_01_Trt_1
    rawValue: '0'
    formattedValue: (  0.0)
  - operationId: Mth01_CatVar_Summ_ByGrp_1_n
    resultGroups:
    - groupingId: AnlsGrouping_01_Trt
      groupId: AnlsGrouping_01_Trt_2
    rawValue: '0'
    formattedValue: '0'
  - operationId: Mth01_CatVar_Summ_ByGrp_2_pct
    resultGroups:
    - groupingId: AnlsGrouping_01_Trt
      groupId: AnlsGrouping_01_Trt_2
    rawValue: '0'
    formattedValue: (  0.0)
  - operationId: Mth01_CatVar_Summ_ByGrp_1_n
    resultGroups:
    - groupingId: AnlsGrouping_01_Trt
      groupId: AnlsGrouping_01_Trt_3
    rawValue: '0'
    formattedValue: '0'
  - operationId: Mth01_CatVar_Summ_ByGrp_2_pct
    resultGroups:
    - groupingId: AnlsGrouping_01_Trt
      groupId: AnlsGrouping_01_Trt_3
    rawValue: '0'
    formattedValue: (  0.0)
- name: Summary of Subjects with At Least One TEAE Leading to Treatment Discontinuation,
    by Treatment
  label: TEAE Leading to Treatment Discontinuation
  id: An07_08_TEAELd2TrtDsc_Summ_ByTrt
  reason:
    sponsorTermId: TermEx1_1
  purpose:
    controlledTerm: SECONDARY OUTCOME MEASURE
  methodId: Mth01_CatVar_Summ_ByGrp
  version: 1
  categoryIds:
  - Catn_01_Grp_2_Saf
  - Catn_02_Dclass_2_Evt
  - Catn_04_EvtDType_1_Ae
  - Catn_05_EvtAType_1_Occ
  dataset: ADAE
  variable: USUBJID
  analysisSetId: AnalysisSet_02_SAF
  dataSubsetId: Dss08_AE_Ld2TrtDsc
  orderedGroupings:
  - order: 1
    groupingId: AnlsGrouping_01_Trt
    resultsByGroup: true
  referencedAnalysisOperations:
  - referencedOperationRelationshipId: Mth01_CatVar_Summ_ByGrp_2_pct_NUM
    analysisId: An07_08_TEAELd2TrtDsc_Summ_ByTrt
  - referencedOperationRelationshipId: Mth01_CatVar_Summ_ByGrp_2_pct_DEN
    analysisId: An01_05_SAF_Summ_ByTrt
  results:
  - operationId: Mth01_CatVar_Summ_ByGrp_1_n
    resultGroups:
    - groupingId: AnlsGrouping_01_Trt
      groupId: AnlsGrouping_01_Trt_1
    rawValue: '0'
    formattedValue: '0'
  - operationId: Mth01_CatVar_Summ_ByGrp_2_pct
    resultGroups:
    - groupingId: AnlsGrouping_01_Trt
      groupId: AnlsGrouping_01_Trt_1
    rawValue: '0'
    formattedValue: (  0.0)
  - operationId: Mth01_CatVar_Summ_ByGrp_1_n
    resultGroups:
    - groupingId: AnlsGrouping_01_Trt
      groupId: AnlsGrouping_01_Trt_2
    rawValue: '0'
    formattedValue: '0'
  - operationId: Mth01_CatVar_Summ_ByGrp_2_pct
    resultGroups:
    - groupingId: AnlsGrouping_01_Trt
      groupId: AnlsGrouping_01_Trt_2
    rawValue: '0'
    formattedValue: (  0.0)
  - operationId: Mth01_CatVar_Summ_ByGrp_1_n
    resultGroups:
    - groupingId: AnlsGrouping_01_Trt
      groupId: AnlsGrouping_01_Trt_3
    rawValue: '0'
    formattedValue: '0'
  - operationId: Mth01_CatVar_Summ_ByGrp_2_pct
    resultGroups:
    - groupingId: AnlsGrouping_01_Trt
      groupId: AnlsGrouping_01_Trt_3
    rawValue: '0'
    formattedValue: (  0.0)
- name: Summary of Subjects with TEAEs by Treatment and System Organ Class
  id: An07_09_Soc_Summ_ByTrt
  reason:
    controlledTerm: SPECIFIED IN SAP
  purpose:
    controlledTerm: PRIMARY OUTCOME MEASURE
  methodId: Mth01_CatVar_Summ_ByGrp
  version: 1
  documentRefs:
  - referenceDocumentId: CDISCPILOT01_SAP
    pageRefs:
    - refType: PhysicalRef
      label: 11.2. Adverse Events
      firstPage: 15
      lastPage: 16
  categoryIds:
  - Catn_01_Grp_2_Saf
  - Catn_02_Dclass_2_Evt
  - Catn_04_EvtDType_1_Ae
  - Catn_05_EvtAType_1_Occ
  dataset: ADAE
  variable: USUBJID
  analysisSetId: AnalysisSet_02_SAF
  dataSubsetId: Dss01_TEAE
  orderedGroupings:
  - order: 1
    groupingId: AnlsGrouping_01_Trt
    resultsByGroup: true
  - order: 2
    groupingId: AnlsGrouping_06_Soc
    resultsByGroup: true
  referencedAnalysisOperations:
  - referencedOperationRelationshipId: Mth01_CatVar_Summ_ByGrp_2_pct_NUM
    analysisId: An07_09_Soc_Summ_ByTrt
  - referencedOperationRelationshipId: Mth01_CatVar_Summ_ByGrp_2_pct_DEN
    analysisId: An01_05_SAF_Summ_ByTrt
  results:
  - operationId: Mth01_CatVar_Summ_ByGrp_1_n
    resultGroups:
    - groupingId: AnlsGrouping_01_Trt
      groupId: AnlsGrouping_01_Trt_1
    - groupingId: AnlsGrouping_06_Soc
      groupValue: CARDIAC DISORDERS
    rawValue: '12'
    formattedValue: '12'
  - operationId: Mth01_CatVar_Summ_ByGrp_2_pct
    resultGroups:
    - groupingId: AnlsGrouping_01_Trt
      groupId: AnlsGrouping_01_Trt_1
    - groupingId: AnlsGrouping_06_Soc
      groupValue: CARDIAC DISORDERS
    rawValue: '13.9535'
    formattedValue: ( 14.0)
  - operationId: Mth01_CatVar_Summ_ByGrp_1_n
    resultGroups:
    - groupingId: AnlsGrouping_01_Trt
      groupId: AnlsGrouping_01_Trt_1
    - groupingId: AnlsGrouping_06_Soc
      groupValue: CONGENITAL, FAMILIAL AND GENETIC DISORDERS
    rawValue: '0'
    formattedValue: '0'
  - operationId: Mth01_CatVar_Summ_ByGrp_2_pct
    resultGroups:
    - groupingId: AnlsGrouping_01_Trt
      groupId: AnlsGrouping_01_Trt_1
    - groupingId: AnlsGrouping_06_Soc
      groupValue: CONGENITAL, FAMILIAL AND GENETIC DISORDERS
    rawValue: '0'
    formattedValue: (  0.0)
  - operationId: Mth01_CatVar_Summ_ByGrp_1_n
    resultGroups:
    - groupingId: AnlsGrouping_01_Trt
      groupId: AnlsGrouping_01_Trt_1
    - groupingId: AnlsGrouping_06_Soc
      groupValue: EAR AND LABYRINTH DISORDERS
    rawValue: '1'
    formattedValue: '1'
  - operationId: Mth01_CatVar_Summ_ByGrp_2_pct
    resultGroups:
    - groupingId: AnlsGrouping_01_Trt
      groupId: AnlsGrouping_01_Trt_1
    - groupingId: AnlsGrouping_06_Soc
      groupValue: EAR AND LABYRINTH DISORDERS
    rawValue: '1.1628'
    formattedValue: (  1.2)
  - operationId: Mth01_CatVar_Summ_ByGrp_1_n
    resultGroups:
    - groupingId: AnlsGrouping_01_Trt
      groupId: AnlsGrouping_01_Trt_1
    - groupingId: AnlsGrouping_06_Soc
      groupValue: EYE DISORDERS
    rawValue: '2'
    formattedValue: '2'
  - operationId: Mth01_CatVar_Summ_ByGrp_2_pct
    resultGroups:
    - groupingId: AnlsGrouping_01_Trt
      groupId: AnlsGrouping_01_Trt_1
    - groupingId: AnlsGrouping_06_Soc
      groupValue: EYE DISORDERS
    rawValue: '2.3256'
    formattedValue: (  2.3)
  - operationId: Mth01_CatVar_Summ_ByGrp_1_n
    resultGroups:
    - groupingId: AnlsGrouping_01_Trt
      groupId: AnlsGrouping_01_Trt_1
    - groupingId: AnlsGrouping_06_Soc
      groupValue: GASTROINTESTINAL DISORDERS
    rawValue: '17'
    formattedValue: '17'
  - operationId: Mth01_CatVar_Summ_ByGrp_2_pct
    resultGroups:
    - groupingId: AnlsGrouping_01_Trt
      groupId: AnlsGrouping_01_Trt_1
    - groupingId: AnlsGrouping_06_Soc
      groupValue: GASTROINTESTINAL DISORDERS
    rawValue: '19.7674'
    formattedValue: ( 19.8)
  - operationId: Mth01_CatVar_Summ_ByGrp_1_n
    resultGroups:
    - groupingId: AnlsGrouping_01_Trt
      groupId: AnlsGrouping_01_Trt_1
    - groupingId: AnlsGrouping_06_Soc
      groupValue: GENERAL DISORDERS AND ADMINISTRATION SITE CONDITIONS
    rawValue: '21'
    formattedValue: '21'
  - operationId: Mth01_CatVar_Summ_ByGrp_2_pct
    resultGroups:
    - groupingId: AnlsGrouping_01_Trt
      groupId: AnlsGrouping_01_Trt_1
    - groupingId: AnlsGrouping_06_Soc
      groupValue: GENERAL DISORDERS AND ADMINISTRATION SITE CONDITIONS
    rawValue: '24.4186'
    formattedValue: ( 24.4)
  - operationId: Mth01_CatVar_Summ_ByGrp_1_n
    resultGroups:
    - groupingId: AnlsGrouping_01_Trt
      groupId: AnlsGrouping_01_Trt_1
    - groupingId: AnlsGrouping_06_Soc
      groupValue: HEPATOBILIARY DISORDERS
    rawValue: '1'
    formattedValue: '1'
  - operationId: Mth01_CatVar_Summ_ByGrp_2_pct
    resultGroups:
    - groupingId: AnlsGrouping_01_Trt
      groupId: AnlsGrouping_01_Trt_1
    - groupingId: AnlsGrouping_06_Soc
      groupValue: HEPATOBILIARY DISORDERS
    rawValue: '1.1628'
    formattedValue: (  1.2)
  - operationId: Mth01_CatVar_Summ_ByGrp_1_n
    resultGroups:
    - groupingId: AnlsGrouping_01_Trt
      groupId: AnlsGrouping_01_Trt_1
    - groupingId: AnlsGrouping_06_Soc
      groupValue: IMMUNE SYSTEM DISORDERS
    rawValue: '0'
    formattedValue: '0'
  - operationId: Mth01_CatVar_Summ_ByGrp_2_pct
    resultGroups:
    - groupingId: AnlsGrouping_01_Trt
      groupId: AnlsGrouping_01_Trt_1
    - groupingId: AnlsGrouping_06_Soc
      groupValue: IMMUNE SYSTEM DISORDERS
    rawValue: '0'
    formattedValue: (  0.0)
  - operationId: Mth01_CatVar_Summ_ByGrp_1_n
    resultGroups:
    - groupingId: AnlsGrouping_01_Trt
      groupId: AnlsGrouping_01_Trt_1
    - groupingId: AnlsGrouping_06_Soc
      groupValue: INFECTIONS AND INFESTATIONS
    rawValue: '16'
    formattedValue: '16'
  - operationId: Mth01_CatVar_Summ_ByGrp_2_pct
    resultGroups:
    - groupingId: AnlsGrouping_01_Trt
      groupId: AnlsGrouping_01_Trt_1
    - groupingId: AnlsGrouping_06_Soc
      groupValue: INFECTIONS AND INFESTATIONS
    rawValue: '18.6047'
    formattedValue: ( 18.6)
  - operationId: Mth01_CatVar_Summ_ByGrp_1_n
    resultGroups:
    - groupingId: AnlsGrouping_01_Trt
      groupId: AnlsGrouping_01_Trt_1
    - groupingId: AnlsGrouping_06_Soc
      groupValue: INJURY, POISONING AND PROCEDURAL COMPLICATIONS
    rawValue: '4'
    formattedValue: '4'
  - operationId: Mth01_CatVar_Summ_ByGrp_2_pct
    resultGroups:
    - groupingId: AnlsGrouping_01_Trt
      groupId: AnlsGrouping_01_Trt_1
    - groupingId: AnlsGrouping_06_Soc
      groupValue: INJURY, POISONING AND PROCEDURAL COMPLICATIONS
    rawValue: '4.6512'
    formattedValue: (  4.7)
  - operationId: Mth01_CatVar_Summ_ByGrp_1_n
    resultGroups:
    - groupingId: AnlsGrouping_01_Trt
      groupId: AnlsGrouping_01_Trt_1
    - groupingId: AnlsGrouping_06_Soc
      groupValue: INVESTIGATIONS
    rawValue: '10'
    formattedValue: '10'
  - operationId: Mth01_CatVar_Summ_ByGrp_2_pct
    resultGroups:
    - groupingId: AnlsGrouping_01_Trt
      groupId: AnlsGrouping_01_Trt_1
    - groupingId: AnlsGrouping_06_Soc
      groupValue: INVESTIGATIONS
    rawValue: '11.6279'
    formattedValue: ( 11.6)
  - operationId: Mth01_CatVar_Summ_ByGrp_1_n
    resultGroups:
    - groupingId: AnlsGrouping_01_Trt
      groupId: AnlsGrouping_01_Trt_1
    - groupingId: AnlsGrouping_06_Soc
      groupValue: METABOLISM AND NUTRITION DISORDERS
    rawValue: '6'
    formattedValue: '6'
  - operationId: Mth01_CatVar_Summ_ByGrp_2_pct
    resultGroups:
    - groupingId: AnlsGrouping_01_Trt
      groupId: AnlsGrouping_01_Trt_1
    - groupingId: AnlsGrouping_06_Soc
      groupValue: METABOLISM AND NUTRITION DISORDERS
    rawValue: '6.9767'
    formattedValue: (  7.0)
  - operationId: Mth01_CatVar_Summ_ByGrp_1_n
    resultGroups:
    - groupingId: AnlsGrouping_01_Trt
      groupId: AnlsGrouping_01_Trt_1
    - groupingId: AnlsGrouping_06_Soc
      groupValue: MUSCULOSKELETAL AND CONNECTIVE TISSUE DISORDERS
    rawValue: '4'
    formattedValue: '4'
  - operationId: Mth01_CatVar_Summ_ByGrp_2_pct
    resultGroups:
    - groupingId: AnlsGrouping_01_Trt
      groupId: AnlsGrouping_01_Trt_1
    - groupingId: AnlsGrouping_06_Soc
      groupValue: MUSCULOSKELETAL AND CONNECTIVE TISSUE DISORDERS
    rawValue: '4.6512'
    formattedValue: (  4.7)
  - operationId: Mth01_CatVar_Summ_ByGrp_1_n
    resultGroups:
    - groupingId: AnlsGrouping_01_Trt
      groupId: AnlsGrouping_01_Trt_1
    - groupingId: AnlsGrouping_06_Soc
      groupValue: NEOPLASMS BENIGN, MALIGNANT AND UNSPECIFIED (INCL CYSTS AND POLYPS)
    rawValue: '0'
    formattedValue: '0'
  - operationId: Mth01_CatVar_Summ_ByGrp_2_pct
    resultGroups:
    - groupingId: AnlsGrouping_01_Trt
      groupId: AnlsGrouping_01_Trt_1
    - groupingId: AnlsGrouping_06_Soc
      groupValue: NEOPLASMS BENIGN, MALIGNANT AND UNSPECIFIED (INCL CYSTS AND POLYPS)
    rawValue: '0'
    formattedValue: (  0.0)
  - operationId: Mth01_CatVar_Summ_ByGrp_1_n
    resultGroups:
    - groupingId: AnlsGrouping_01_Trt
      groupId: AnlsGrouping_01_Trt_1
    - groupingId: AnlsGrouping_06_Soc
      groupValue: NERVOUS SYSTEM DISORDERS
    rawValue: '8'
    formattedValue: '8'
  - operationId: Mth01_CatVar_Summ_ByGrp_2_pct
    resultGroups:
    - groupingId: AnlsGrouping_01_Trt
      groupId: AnlsGrouping_01_Trt_1
    - groupingId: AnlsGrouping_06_Soc
      groupValue: NERVOUS SYSTEM DISORDERS
    rawValue: '9.3023'
    formattedValue: (  9.3)
  - operationId: Mth01_CatVar_Summ_ByGrp_1_n
    resultGroups:
    - groupingId: AnlsGrouping_01_Trt
      groupId: AnlsGrouping_01_Trt_1
    - groupingId: AnlsGrouping_06_Soc
      groupValue: PSYCHIATRIC DISORDERS
    rawValue: '10'
    formattedValue: '10'
  - operationId: Mth01_CatVar_Summ_ByGrp_2_pct
    resultGroups:
    - groupingId: AnlsGrouping_01_Trt
      groupId: AnlsGrouping_01_Trt_1
    - groupingId: AnlsGrouping_06_Soc
      groupValue: PSYCHIATRIC DISORDERS
    rawValue: '11.6279'
    formattedValue: ( 11.6)
  - operationId: Mth01_CatVar_Summ_ByGrp_1_n
    resultGroups:
    - groupingId: AnlsGrouping_01_Trt
      groupId: AnlsGrouping_01_Trt_1
    - groupingId: AnlsGrouping_06_Soc
      groupValue: RENAL AND URINARY DISORDERS
    rawValue: '4'
    formattedValue: '4'
  - operationId: Mth01_CatVar_Summ_ByGrp_2_pct
    resultGroups:
    - groupingId: AnlsGrouping_01_Trt
      groupId: AnlsGrouping_01_Trt_1
    - groupingId: AnlsGrouping_06_Soc
      groupValue: RENAL AND URINARY DISORDERS
    rawValue: '4.6512'
    formattedValue: (  4.7)
  - operationId: Mth01_CatVar_Summ_ByGrp_1_n
    resultGroups:
    - groupingId: AnlsGrouping_01_Trt
      groupId: AnlsGrouping_01_Trt_1
    - groupingId: AnlsGrouping_06_Soc
      groupValue: REPRODUCTIVE SYSTEM AND BREAST DISORDERS
    rawValue: '2'
    formattedValue: '2'
  - operationId: Mth01_CatVar_Summ_ByGrp_2_pct
    resultGroups:
    - groupingId: AnlsGrouping_01_Trt
      groupId: AnlsGrouping_01_Trt_1
    - groupingId: AnlsGrouping_06_Soc
      groupValue: REPRODUCTIVE SYSTEM AND BREAST DISORDERS
    rawValue: '2.3256'
    formattedValue: (  2.3)
  - operationId: Mth01_CatVar_Summ_ByGrp_1_n
    resultGroups:
    - groupingId: AnlsGrouping_01_Trt
      groupId: AnlsGrouping_01_Trt_1
    - groupingId: AnlsGrouping_06_Soc
      groupValue: RESPIRATORY, THORACIC AND MEDIASTINAL DISORDERS
    rawValue: '8'
    formattedValue: '8'
  - operationId: Mth01_CatVar_Summ_ByGrp_2_pct
    resultGroups:
    - groupingId: AnlsGrouping_01_Trt
      groupId: AnlsGrouping_01_Trt_1
    - groupingId: AnlsGrouping_06_Soc
      groupValue: RESPIRATORY, THORACIC AND MEDIASTINAL DISORDERS
    rawValue: '9.3023'
    formattedValue: (  9.3)
  - operationId: Mth01_CatVar_Summ_ByGrp_1_n
    resultGroups:
    - groupingId: AnlsGrouping_01_Trt
      groupId: AnlsGrouping_01_Trt_1
    - groupingId: AnlsGrouping_06_Soc
      groupValue: SKIN AND SUBCUTANEOUS TISSUE DISORDERS
    rawValue: '20'
    formattedValue: '20'
  - operationId: Mth01_CatVar_Summ_ByGrp_2_pct
    resultGroups:
    - groupingId: AnlsGrouping_01_Trt
      groupId: AnlsGrouping_01_Trt_1
    - groupingId: AnlsGrouping_06_Soc
      groupValue: SKIN AND SUBCUTANEOUS TISSUE DISORDERS
    rawValue: '23.2558'
    formattedValue: ( 23.3)
  - operationId: Mth01_CatVar_Summ_ByGrp_1_n
    resultGroups:
    - groupingId: AnlsGrouping_01_Trt
      groupId: AnlsGrouping_01_Trt_1
    - groupingId: AnlsGrouping_06_Soc
      groupValue: SOCIAL CIRCUMSTANCES
    rawValue: '0'
    formattedValue: '0'
  - operationId: Mth01_CatVar_Summ_ByGrp_2_pct
    resultGroups:
    - groupingId: AnlsGrouping_01_Trt
      groupId: AnlsGrouping_01_Trt_1
    - groupingId: AnlsGrouping_06_Soc
      groupValue: SOCIAL CIRCUMSTANCES
    rawValue: '0'
    formattedValue: (  0.0)
  - operationId: Mth01_CatVar_Summ_ByGrp_1_n
    resultGroups:
    - groupingId: AnlsGrouping_01_Trt
      groupId: AnlsGrouping_01_Trt_1
    - groupingId: AnlsGrouping_06_Soc
      groupValue: SURGICAL AND MEDICAL PROCEDURES
    rawValue: '2'
    formattedValue: '2'
  - operationId: Mth01_CatVar_Summ_ByGrp_2_pct
    resultGroups:
    - groupingId: AnlsGrouping_01_Trt
      groupId: AnlsGrouping_01_Trt_1
    - groupingId: AnlsGrouping_06_Soc
      groupValue: SURGICAL AND MEDICAL PROCEDURES
    rawValue: '2.3256'
    formattedValue: (  2.3)
  - operationId: Mth01_CatVar_Summ_ByGrp_1_n
    resultGroups:
    - groupingId: AnlsGrouping_01_Trt
      groupId: AnlsGrouping_01_Trt_1
    - groupingId: AnlsGrouping_06_Soc
      groupValue: VASCULAR DISORDERS
    rawValue: '3'
    formattedValue: '3'
  - operationId: Mth01_CatVar_Summ_ByGrp_2_pct
    resultGroups:
    - groupingId: AnlsGrouping_01_Trt
      groupId: AnlsGrouping_01_Trt_1
    - groupingId: AnlsGrouping_06_Soc
      groupValue: VASCULAR DISORDERS
    rawValue: '3.4884'
    formattedValue: (  3.5)
  - operationId: Mth01_CatVar_Summ_ByGrp_1_n
    resultGroups:
    - groupingId: AnlsGrouping_01_Trt
      groupId: AnlsGrouping_01_Trt_2
    - groupingId: AnlsGrouping_06_Soc
      groupValue: CARDIAC DISORDERS
    rawValue: '13'
    formattedValue: '13'
  - operationId: Mth01_CatVar_Summ_ByGrp_2_pct
    resultGroups:
    - groupingId: AnlsGrouping_01_Trt
      groupId: AnlsGrouping_01_Trt_2
    - groupingId: AnlsGrouping_06_Soc
      groupValue: CARDIAC DISORDERS
    rawValue: '15.4762'
    formattedValue: ( 15.5)
  - operationId: Mth01_CatVar_Summ_ByGrp_1_n
    resultGroups:
    - groupingId: AnlsGrouping_01_Trt
      groupId: AnlsGrouping_01_Trt_2
    - groupingId: AnlsGrouping_06_Soc
      groupValue: CONGENITAL, FAMILIAL AND GENETIC DISORDERS
    rawValue: '1'
    formattedValue: '1'
  - operationId: Mth01_CatVar_Summ_ByGrp_2_pct
    resultGroups:
    - groupingId: AnlsGrouping_01_Trt
      groupId: AnlsGrouping_01_Trt_2
    - groupingId: AnlsGrouping_06_Soc
      groupValue: CONGENITAL, FAMILIAL AND GENETIC DISORDERS
    rawValue: '1.1905'
    formattedValue: (  1.2)
  - operationId: Mth01_CatVar_Summ_ByGrp_1_n
    resultGroups:
    - groupingId: AnlsGrouping_01_Trt
      groupId: AnlsGrouping_01_Trt_2
    - groupingId: AnlsGrouping_06_Soc
      groupValue: EAR AND LABYRINTH DISORDERS
    rawValue: '2'
    formattedValue: '2'
  - operationId: Mth01_CatVar_Summ_ByGrp_2_pct
    resultGroups:
    - groupingId: AnlsGrouping_01_Trt
      groupId: AnlsGrouping_01_Trt_2
    - groupingId: AnlsGrouping_06_Soc
      groupValue: EAR AND LABYRINTH DISORDERS
    rawValue: '2.381'
    formattedValue: (  2.4)
  - operationId: Mth01_CatVar_Summ_ByGrp_1_n
    resultGroups:
    - groupingId: AnlsGrouping_01_Trt
      groupId: AnlsGrouping_01_Trt_2
    - groupingId: AnlsGrouping_06_Soc
      groupValue: EYE DISORDERS
    rawValue: '2'
    formattedValue: '2'
  - operationId: Mth01_CatVar_Summ_ByGrp_2_pct
    resultGroups:
    - groupingId: AnlsGrouping_01_Trt
      groupId: AnlsGrouping_01_Trt_2
    - groupingId: AnlsGrouping_06_Soc
      groupValue: EYE DISORDERS
    rawValue: '2.381'
    formattedValue: (  2.4)
  - operationId: Mth01_CatVar_Summ_ByGrp_1_n
    resultGroups:
    - groupingId: AnlsGrouping_01_Trt
      groupId: AnlsGrouping_01_Trt_2
    - groupingId: AnlsGrouping_06_Soc
      groupValue: GASTROINTESTINAL DISORDERS
    rawValue: '14'
    formattedValue: '14'
  - operationId: Mth01_CatVar_Summ_ByGrp_2_pct
    resultGroups:
    - groupingId: AnlsGrouping_01_Trt
      groupId: AnlsGrouping_01_Trt_2
    - groupingId: AnlsGrouping_06_Soc
      groupValue: GASTROINTESTINAL DISORDERS
    rawValue: '16.6667'
    formattedValue: ( 16.7)
  - operationId: Mth01_CatVar_Summ_ByGrp_1_n
    resultGroups:
    - groupingId: AnlsGrouping_01_Trt
      groupId: AnlsGrouping_01_Trt_2
    - groupingId: AnlsGrouping_06_Soc
      groupValue: GENERAL DISORDERS AND ADMINISTRATION SITE CONDITIONS
    rawValue: '47'
    formattedValue: '47'
  - operationId: Mth01_CatVar_Summ_ByGrp_2_pct
    resultGroups:
    - groupingId: AnlsGrouping_01_Trt
      groupId: AnlsGrouping_01_Trt_2
    - groupingId: AnlsGrouping_06_Soc
      groupValue: GENERAL DISORDERS AND ADMINISTRATION SITE CONDITIONS
    rawValue: '55.9524'
    formattedValue: ( 56.0)
  - operationId: Mth01_CatVar_Summ_ByGrp_1_n
    resultGroups:
    - groupingId: AnlsGrouping_01_Trt
      groupId: AnlsGrouping_01_Trt_2
    - groupingId: AnlsGrouping_06_Soc
      groupValue: HEPATOBILIARY DISORDERS
    rawValue: '0'
    formattedValue: '0'
  - operationId: Mth01_CatVar_Summ_ByGrp_2_pct
    resultGroups:
    - groupingId: AnlsGrouping_01_Trt
      groupId: AnlsGrouping_01_Trt_2
    - groupingId: AnlsGrouping_06_Soc
      groupValue: HEPATOBILIARY DISORDERS
    rawValue: '0'
    formattedValue: (  0.0)
  - operationId: Mth01_CatVar_Summ_ByGrp_1_n
    resultGroups:
    - groupingId: AnlsGrouping_01_Trt
      groupId: AnlsGrouping_01_Trt_2
    - groupingId: AnlsGrouping_06_Soc
      groupValue: IMMUNE SYSTEM DISORDERS
    rawValue: '1'
    formattedValue: '1'
  - operationId: Mth01_CatVar_Summ_ByGrp_2_pct
    resultGroups:
    - groupingId: AnlsGrouping_01_Trt
      groupId: AnlsGrouping_01_Trt_2
    - groupingId: AnlsGrouping_06_Soc
      groupValue: IMMUNE SYSTEM DISORDERS
    rawValue: '1.1905'
    formattedValue: (  1.2)
  - operationId: Mth01_CatVar_Summ_ByGrp_1_n
    resultGroups:
    - groupingId: AnlsGrouping_01_Trt
      groupId: AnlsGrouping_01_Trt_2
    - groupingId: AnlsGrouping_06_Soc
      groupValue: INFECTIONS AND INFESTATIONS
    rawValue: '9'
    formattedValue: '9'
  - operationId: Mth01_CatVar_Summ_ByGrp_2_pct
    resultGroups:
    - groupingId: AnlsGrouping_01_Trt
      groupId: AnlsGrouping_01_Trt_2
    - groupingId: AnlsGrouping_06_Soc
      groupValue: INFECTIONS AND INFESTATIONS
    rawValue: '10.7143'
    formattedValue: ( 10.7)
  - operationId: Mth01_CatVar_Summ_ByGrp_1_n
    resultGroups:
    - groupingId: AnlsGrouping_01_Trt
      groupId: AnlsGrouping_01_Trt_2
    - groupingId: AnlsGrouping_06_Soc
      groupValue: INJURY, POISONING AND PROCEDURAL COMPLICATIONS
    rawValue: '5'
    formattedValue: '5'
  - operationId: Mth01_CatVar_Summ_ByGrp_2_pct
    resultGroups:
    - groupingId: AnlsGrouping_01_Trt
      groupId: AnlsGrouping_01_Trt_2
    - groupingId: AnlsGrouping_06_Soc
      groupValue: INJURY, POISONING AND PROCEDURAL COMPLICATIONS
    rawValue: '5.9524'
    formattedValue: (  6.0)
  - operationId: Mth01_CatVar_Summ_ByGrp_1_n
    resultGroups:
    - groupingId: AnlsGrouping_01_Trt
      groupId: AnlsGrouping_01_Trt_2
    - groupingId: AnlsGrouping_06_Soc
      groupValue: INVESTIGATIONS
    rawValue: '6'
    formattedValue: '6'
  - operationId: Mth01_CatVar_Summ_ByGrp_2_pct
    resultGroups:
    - groupingId: AnlsGrouping_01_Trt
      groupId: AnlsGrouping_01_Trt_2
    - groupingId: AnlsGrouping_06_Soc
      groupValue: INVESTIGATIONS
    rawValue: '7.1429'
    formattedValue: (  7.1)
  - operationId: Mth01_CatVar_Summ_ByGrp_1_n
    resultGroups:
    - groupingId: AnlsGrouping_01_Trt
      groupId: AnlsGrouping_01_Trt_2
    - groupingId: AnlsGrouping_06_Soc
      groupValue: METABOLISM AND NUTRITION DISORDERS
    rawValue: '1'
    formattedValue: '1'
  - operationId: Mth01_CatVar_Summ_ByGrp_2_pct
    resultGroups:
    - groupingId: AnlsGrouping_01_Trt
      groupId: AnlsGrouping_01_Trt_2
    - groupingId: AnlsGrouping_06_Soc
      groupValue: METABOLISM AND NUTRITION DISORDERS
    rawValue: '1.1905'
    formattedValue: (  1.2)
  - operationId: Mth01_CatVar_Summ_ByGrp_1_n
    resultGroups:
    - groupingId: AnlsGrouping_01_Trt
      groupId: AnlsGrouping_01_Trt_2
    - groupingId: AnlsGrouping_06_Soc
      groupValue: MUSCULOSKELETAL AND CONNECTIVE TISSUE DISORDERS
    rawValue: '7'
    formattedValue: '7'
  - operationId: Mth01_CatVar_Summ_ByGrp_2_pct
    resultGroups:
    - groupingId: AnlsGrouping_01_Trt
      groupId: AnlsGrouping_01_Trt_2
    - groupingId: AnlsGrouping_06_Soc
      groupValue: MUSCULOSKELETAL AND CONNECTIVE TISSUE DISORDERS
    rawValue: '8.3333'
    formattedValue: (  8.3)
  - operationId: Mth01_CatVar_Summ_ByGrp_1_n
    resultGroups:
    - groupingId: AnlsGrouping_01_Trt
      groupId: AnlsGrouping_01_Trt_2
    - groupingId: AnlsGrouping_06_Soc
      groupValue: NEOPLASMS BENIGN, MALIGNANT AND UNSPECIFIED (INCL CYSTS AND POLYPS)
    rawValue: '2'
    formattedValue: '2'
  - operationId: Mth01_CatVar_Summ_ByGrp_2_pct
    resultGroups:
    - groupingId: AnlsGrouping_01_Trt
      groupId: AnlsGrouping_01_Trt_2
    - groupingId: AnlsGrouping_06_Soc
      groupValue: NEOPLASMS BENIGN, MALIGNANT AND UNSPECIFIED (INCL CYSTS AND POLYPS)
    rawValue: '2.381'
    formattedValue: (  2.4)
  - operationId: Mth01_CatVar_Summ_ByGrp_1_n
    resultGroups:
    - groupingId: AnlsGrouping_01_Trt
      groupId: AnlsGrouping_01_Trt_2
    - groupingId: AnlsGrouping_06_Soc
      groupValue: NERVOUS SYSTEM DISORDERS
    rawValue: '20'
    formattedValue: '20'
  - operationId: Mth01_CatVar_Summ_ByGrp_2_pct
    resultGroups:
    - groupingId: AnlsGrouping_01_Trt
      groupId: AnlsGrouping_01_Trt_2
    - groupingId: AnlsGrouping_06_Soc
      groupValue: NERVOUS SYSTEM DISORDERS
    rawValue: '23.8095'
    formattedValue: ( 23.8)
  - operationId: Mth01_CatVar_Summ_ByGrp_1_n
    resultGroups:
    - groupingId: AnlsGrouping_01_Trt
      groupId: AnlsGrouping_01_Trt_2
    - groupingId: AnlsGrouping_06_Soc
      groupValue: PSYCHIATRIC DISORDERS
    rawValue: '10'
    formattedValue: '10'
  - operationId: Mth01_CatVar_Summ_ByGrp_2_pct
    resultGroups:
    - groupingId: AnlsGrouping_01_Trt
      groupId: AnlsGrouping_01_Trt_2
    - groupingId: AnlsGrouping_06_Soc
      groupValue: PSYCHIATRIC DISORDERS
    rawValue: '11.9048'
    formattedValue: ( 11.9)
  - operationId: Mth01_CatVar_Summ_ByGrp_1_n
    resultGroups:
    - groupingId: AnlsGrouping_01_Trt
      groupId: AnlsGrouping_01_Trt_2
    - groupingId: AnlsGrouping_06_Soc
      groupValue: RENAL AND URINARY DISORDERS
    rawValue: '3'
    formattedValue: '3'
  - operationId: Mth01_CatVar_Summ_ByGrp_2_pct
    resultGroups:
    - groupingId: AnlsGrouping_01_Trt
      groupId: AnlsGrouping_01_Trt_2
    - groupingId: AnlsGrouping_06_Soc
      groupValue: RENAL AND URINARY DISORDERS
    rawValue: '3.5714'
    formattedValue: (  3.6)
  - operationId: Mth01_CatVar_Summ_ByGrp_1_n
    resultGroups:
    - groupingId: AnlsGrouping_01_Trt
      groupId: AnlsGrouping_01_Trt_2
    - groupingId: AnlsGrouping_06_Soc
      groupValue: REPRODUCTIVE SYSTEM AND BREAST DISORDERS
    rawValue: '0'
    formattedValue: '0'
  - operationId: Mth01_CatVar_Summ_ByGrp_2_pct
    resultGroups:
    - groupingId: AnlsGrouping_01_Trt
      groupId: AnlsGrouping_01_Trt_2
    - groupingId: AnlsGrouping_06_Soc
      groupValue: REPRODUCTIVE SYSTEM AND BREAST DISORDERS
    rawValue: '0'
    formattedValue: (  0.0)
  - operationId: Mth01_CatVar_Summ_ByGrp_1_n
    resultGroups:
    - groupingId: AnlsGrouping_01_Trt
      groupId: AnlsGrouping_01_Trt_2
    - groupingId: AnlsGrouping_06_Soc
      groupValue: RESPIRATORY, THORACIC AND MEDIASTINAL DISORDERS
    rawValue: '9'
    formattedValue: '9'
  - operationId: Mth01_CatVar_Summ_ByGrp_2_pct
    resultGroups:
    - groupingId: AnlsGrouping_01_Trt
      groupId: AnlsGrouping_01_Trt_2
    - groupingId: AnlsGrouping_06_Soc
      groupValue: RESPIRATORY, THORACIC AND MEDIASTINAL DISORDERS
    rawValue: '10.7143'
    formattedValue: ( 10.7)
  - operationId: Mth01_CatVar_Summ_ByGrp_1_n
    resultGroups:
    - groupingId: AnlsGrouping_01_Trt
      groupId: AnlsGrouping_01_Trt_2
    - groupingId: AnlsGrouping_06_Soc
      groupValue: SKIN AND SUBCUTANEOUS TISSUE DISORDERS
    rawValue: '39'
    formattedValue: '39'
  - operationId: Mth01_CatVar_Summ_ByGrp_2_pct
    resultGroups:
    - groupingId: AnlsGrouping_01_Trt
      groupId: AnlsGrouping_01_Trt_2
    - groupingId: AnlsGrouping_06_Soc
      groupValue: SKIN AND SUBCUTANEOUS TISSUE DISORDERS
    rawValue: '46.4286'
    formattedValue: ( 46.4)
  - operationId: Mth01_CatVar_Summ_ByGrp_1_n
    resultGroups:
    - groupingId: AnlsGrouping_01_Trt
      groupId: AnlsGrouping_01_Trt_2
    - groupingId: AnlsGrouping_06_Soc
      groupValue: SOCIAL CIRCUMSTANCES
    rawValue: '0'
    formattedValue: '0'
  - operationId: Mth01_CatVar_Summ_ByGrp_2_pct
    resultGroups:
    - groupingId: AnlsGrouping_01_Trt
      groupId: AnlsGrouping_01_Trt_2
    - groupingId: AnlsGrouping_06_Soc
      groupValue: SOCIAL CIRCUMSTANCES
    rawValue: '0'
    formattedValue: (  0.0)
  - operationId: Mth01_CatVar_Summ_ByGrp_1_n
    resultGroups:
    - groupingId: AnlsGrouping_01_Trt
      groupId: AnlsGrouping_01_Trt_2
    - groupingId: AnlsGrouping_06_Soc
      groupValue: SURGICAL AND MEDICAL PROCEDURES
    rawValue: '1'
    formattedValue: '1'
  - operationId: Mth01_CatVar_Summ_ByGrp_2_pct
    resultGroups:
    - groupingId: AnlsGrouping_01_Trt
      groupId: AnlsGrouping_01_Trt_2
    - groupingId: AnlsGrouping_06_Soc
      groupValue: SURGICAL AND MEDICAL PROCEDURES
    rawValue: '1.1905'
    formattedValue: (  1.2)
  - operationId: Mth01_CatVar_Summ_ByGrp_1_n
    resultGroups:
    - groupingId: AnlsGrouping_01_Trt
      groupId: AnlsGrouping_01_Trt_2
    - groupingId: AnlsGrouping_06_Soc
      groupValue: VASCULAR DISORDERS
    rawValue: '3'
    formattedValue: '3'
  - operationId: Mth01_CatVar_Summ_ByGrp_2_pct
    resultGroups:
    - groupingId: AnlsGrouping_01_Trt
      groupId: AnlsGrouping_01_Trt_2
    - groupingId: AnlsGrouping_06_Soc
      groupValue: VASCULAR DISORDERS
    rawValue: '3.5714'
    formattedValue: (  3.6)
  - operationId: Mth01_CatVar_Summ_ByGrp_1_n
    resultGroups:
    - groupingId: AnlsGrouping_01_Trt
      groupId: AnlsGrouping_01_Trt_3
    - groupingId: AnlsGrouping_06_Soc
      groupValue: CARDIAC DISORDERS
    rawValue: '15'
    formattedValue: '15'
  - operationId: Mth01_CatVar_Summ_ByGrp_2_pct
    resultGroups:
    - groupingId: AnlsGrouping_01_Trt
      groupId: AnlsGrouping_01_Trt_3
    - groupingId: AnlsGrouping_06_Soc
      groupValue: CARDIAC DISORDERS
    rawValue: '17.8571'
    formattedValue: ( 17.9)
  - operationId: Mth01_CatVar_Summ_ByGrp_1_n
    resultGroups:
    - groupingId: AnlsGrouping_01_Trt
      groupId: AnlsGrouping_01_Trt_3
    - groupingId: AnlsGrouping_06_Soc
      groupValue: CONGENITAL, FAMILIAL AND GENETIC DISORDERS
    rawValue: '2'
    formattedValue: '2'
  - operationId: Mth01_CatVar_Summ_ByGrp_2_pct
    resultGroups:
    - groupingId: AnlsGrouping_01_Trt
      groupId: AnlsGrouping_01_Trt_3
    - groupingId: AnlsGrouping_06_Soc
      groupValue: CONGENITAL, FAMILIAL AND GENETIC DISORDERS
    rawValue: '2.381'
    formattedValue: (  2.4)
  - operationId: Mth01_CatVar_Summ_ByGrp_1_n
    resultGroups:
    - groupingId: AnlsGrouping_01_Trt
      groupId: AnlsGrouping_01_Trt_3
    - groupingId: AnlsGrouping_06_Soc
      groupValue: EAR AND LABYRINTH DISORDERS
    rawValue: '1'
    formattedValue: '1'
  - operationId: Mth01_CatVar_Summ_ByGrp_2_pct
    resultGroups:
    - groupingId: AnlsGrouping_01_Trt
      groupId: AnlsGrouping_01_Trt_3
    - groupingId: AnlsGrouping_06_Soc
      groupValue: EAR AND LABYRINTH DISORDERS
    rawValue: '1.1905'
    formattedValue: (  1.2)
  - operationId: Mth01_CatVar_Summ_ByGrp_1_n
    resultGroups:
    - groupingId: AnlsGrouping_01_Trt
      groupId: AnlsGrouping_01_Trt_3
    - groupingId: AnlsGrouping_06_Soc
      groupValue: EYE DISORDERS
    rawValue: '1'
    formattedValue: '1'
  - operationId: Mth01_CatVar_Summ_ByGrp_2_pct
    resultGroups:
    - groupingId: AnlsGrouping_01_Trt
      groupId: AnlsGrouping_01_Trt_3
    - groupingId: AnlsGrouping_06_Soc
      groupValue: EYE DISORDERS
    rawValue: '1.1905'
    formattedValue: (  1.2)
  - operationId: Mth01_CatVar_Summ_ByGrp_1_n
    resultGroups:
    - groupingId: AnlsGrouping_01_Trt
      groupId: AnlsGrouping_01_Trt_3
    - groupingId: AnlsGrouping_06_Soc
      groupValue: GASTROINTESTINAL DISORDERS
    rawValue: '20'
    formattedValue: '20'
  - operationId: Mth01_CatVar_Summ_ByGrp_2_pct
    resultGroups:
    - groupingId: AnlsGrouping_01_Trt
      groupId: AnlsGrouping_01_Trt_3
    - groupingId: AnlsGrouping_06_Soc
      groupValue: GASTROINTESTINAL DISORDERS
    rawValue: '23.8095'
    formattedValue: ( 23.8)
  - operationId: Mth01_CatVar_Summ_ByGrp_1_n
    resultGroups:
    - groupingId: AnlsGrouping_01_Trt
      groupId: AnlsGrouping_01_Trt_3
    - groupingId: AnlsGrouping_06_Soc
      groupValue: GENERAL DISORDERS AND ADMINISTRATION SITE CONDITIONS
    rawValue: '40'
    formattedValue: '40'
  - operationId: Mth01_CatVar_Summ_ByGrp_2_pct
    resultGroups:
    - groupingId: AnlsGrouping_01_Trt
      groupId: AnlsGrouping_01_Trt_3
    - groupingId: AnlsGrouping_06_Soc
      groupValue: GENERAL DISORDERS AND ADMINISTRATION SITE CONDITIONS
    rawValue: '47.619'
    formattedValue: ( 47.6)
  - operationId: Mth01_CatVar_Summ_ByGrp_1_n
    resultGroups:
    - groupingId: AnlsGrouping_01_Trt
      groupId: AnlsGrouping_01_Trt_3
    - groupingId: AnlsGrouping_06_Soc
      groupValue: HEPATOBILIARY DISORDERS
    rawValue: '0'
    formattedValue: '0'
  - operationId: Mth01_CatVar_Summ_ByGrp_2_pct
    resultGroups:
    - groupingId: AnlsGrouping_01_Trt
      groupId: AnlsGrouping_01_Trt_3
    - groupingId: AnlsGrouping_06_Soc
      groupValue: HEPATOBILIARY DISORDERS
    rawValue: '0'
    formattedValue: (  0.0)
  - operationId: Mth01_CatVar_Summ_ByGrp_1_n
    resultGroups:
    - groupingId: AnlsGrouping_01_Trt
      groupId: AnlsGrouping_01_Trt_3
    - groupingId: AnlsGrouping_06_Soc
      groupValue: IMMUNE SYSTEM DISORDERS
    rawValue: '0'
    formattedValue: '0'
  - operationId: Mth01_CatVar_Summ_ByGrp_2_pct
    resultGroups:
    - groupingId: AnlsGrouping_01_Trt
      groupId: AnlsGrouping_01_Trt_3
    - groupingId: AnlsGrouping_06_Soc
      groupValue: IMMUNE SYSTEM DISORDERS
    rawValue: '0'
    formattedValue: (  0.0)
  - operationId: Mth01_CatVar_Summ_ByGrp_1_n
    resultGroups:
    - groupingId: AnlsGrouping_01_Trt
      groupId: AnlsGrouping_01_Trt_3
    - groupingId: AnlsGrouping_06_Soc
      groupValue: INFECTIONS AND INFESTATIONS
    rawValue: '13'
    formattedValue: '13'
  - operationId: Mth01_CatVar_Summ_ByGrp_2_pct
    resultGroups:
    - groupingId: AnlsGrouping_01_Trt
      groupId: AnlsGrouping_01_Trt_3
    - groupingId: AnlsGrouping_06_Soc
      groupValue: INFECTIONS AND INFESTATIONS
    rawValue: '15.4762'
    formattedValue: ( 15.5)
  - operationId: Mth01_CatVar_Summ_ByGrp_1_n
    resultGroups:
    - groupingId: AnlsGrouping_01_Trt
      groupId: AnlsGrouping_01_Trt_3
    - groupingId: AnlsGrouping_06_Soc
      groupValue: INJURY, POISONING AND PROCEDURAL COMPLICATIONS
    rawValue: '5'
    formattedValue: '5'
  - operationId: Mth01_CatVar_Summ_ByGrp_2_pct
    resultGroups:
    - groupingId: AnlsGrouping_01_Trt
      groupId: AnlsGrouping_01_Trt_3
    - groupingId: AnlsGrouping_06_Soc
      groupValue: INJURY, POISONING AND PROCEDURAL COMPLICATIONS
    rawValue: '5.9524'
    formattedValue: (  6.0)
  - operationId: Mth01_CatVar_Summ_ByGrp_1_n
    resultGroups:
    - groupingId: AnlsGrouping_01_Trt
      groupId: AnlsGrouping_01_Trt_3
    - groupingId: AnlsGrouping_06_Soc
      groupValue: INVESTIGATIONS
    rawValue: '6'
    formattedValue: '6'
  - operationId: Mth01_CatVar_Summ_ByGrp_2_pct
    resultGroups:
    - groupingId: AnlsGrouping_01_Trt
      groupId: AnlsGrouping_01_Trt_3
    - groupingId: AnlsGrouping_06_Soc
      groupValue: INVESTIGATIONS
    rawValue: '7.1429'
    formattedValue: (  7.1)
  - operationId: Mth01_CatVar_Summ_ByGrp_1_n
    resultGroups:
    - groupingId: AnlsGrouping_01_Trt
      groupId: AnlsGrouping_01_Trt_3
    - groupingId: AnlsGrouping_06_Soc
      groupValue: METABOLISM AND NUTRITION DISORDERS
    rawValue: '2'
    formattedValue: '2'
  - operationId: Mth01_CatVar_Summ_ByGrp_2_pct
    resultGroups:
    - groupingId: AnlsGrouping_01_Trt
      groupId: AnlsGrouping_01_Trt_3
    - groupingId: AnlsGrouping_06_Soc
      groupValue: METABOLISM AND NUTRITION DISORDERS
    rawValue: '2.381'
    formattedValue: (  2.4)
  - operationId: Mth01_CatVar_Summ_ByGrp_1_n
    resultGroups:
    - groupingId: AnlsGrouping_01_Trt
      groupId: AnlsGrouping_01_Trt_3
    - groupingId: AnlsGrouping_06_Soc
      groupValue: MUSCULOSKELETAL AND CONNECTIVE TISSUE DISORDERS
    rawValue: '7'
    formattedValue: '7'
  - operationId: Mth01_CatVar_Summ_ByGrp_2_pct
    resultGroups:
    - groupingId: AnlsGrouping_01_Trt
      groupId: AnlsGrouping_01_Trt_3
    - groupingId: AnlsGrouping_06_Soc
      groupValue: MUSCULOSKELETAL AND CONNECTIVE TISSUE DISORDERS
    rawValue: '8.3333'
    formattedValue: (  8.3)
  - operationId: Mth01_CatVar_Summ_ByGrp_1_n
    resultGroups:
    - groupingId: AnlsGrouping_01_Trt
      groupId: AnlsGrouping_01_Trt_3
    - groupingId: AnlsGrouping_06_Soc
      groupValue: NEOPLASMS BENIGN, MALIGNANT AND UNSPECIFIED (INCL CYSTS AND POLYPS)
    rawValue: '1'
    formattedValue: '1'
  - operationId: Mth01_CatVar_Summ_ByGrp_2_pct
    resultGroups:
    - groupingId: AnlsGrouping_01_Trt
      groupId: AnlsGrouping_01_Trt_3
    - groupingId: AnlsGrouping_06_Soc
      groupValue: NEOPLASMS BENIGN, MALIGNANT AND UNSPECIFIED (INCL CYSTS AND POLYPS)
    rawValue: '1.1905'
    formattedValue: (  1.2)
  - operationId: Mth01_CatVar_Summ_ByGrp_1_n
    resultGroups:
    - groupingId: AnlsGrouping_01_Trt
      groupId: AnlsGrouping_01_Trt_3
    - groupingId: AnlsGrouping_06_Soc
      groupValue: NERVOUS SYSTEM DISORDERS
    rawValue: '25'
    formattedValue: '25'
  - operationId: Mth01_CatVar_Summ_ByGrp_2_pct
    resultGroups:
    - groupingId: AnlsGrouping_01_Trt
      groupId: AnlsGrouping_01_Trt_3
    - groupingId: AnlsGrouping_06_Soc
      groupValue: NERVOUS SYSTEM DISORDERS
    rawValue: '29.7619'
    formattedValue: ( 29.8)
  - operationId: Mth01_CatVar_Summ_ByGrp_1_n
    resultGroups:
    - groupingId: AnlsGrouping_01_Trt
      groupId: AnlsGrouping_01_Trt_3
    - groupingId: AnlsGrouping_06_Soc
      groupValue: PSYCHIATRIC DISORDERS
    rawValue: '8'
    formattedValue: '8'
  - operationId: Mth01_CatVar_Summ_ByGrp_2_pct
    resultGroups:
    - groupingId: AnlsGrouping_01_Trt
      groupId: AnlsGrouping_01_Trt_3
    - groupingId: AnlsGrouping_06_Soc
      groupValue: PSYCHIATRIC DISORDERS
    rawValue: '9.5238'
    formattedValue: (  9.5)
  - operationId: Mth01_CatVar_Summ_ByGrp_1_n
    resultGroups:
    - groupingId: AnlsGrouping_01_Trt
      groupId: AnlsGrouping_01_Trt_3
    - groupingId: AnlsGrouping_06_Soc
      groupValue: RENAL AND URINARY DISORDERS
    rawValue: '3'
    formattedValue: '3'
  - operationId: Mth01_CatVar_Summ_ByGrp_2_pct
    resultGroups:
    - groupingId: AnlsGrouping_01_Trt
      groupId: AnlsGrouping_01_Trt_3
    - groupingId: AnlsGrouping_06_Soc
      groupValue: RENAL AND URINARY DISORDERS
    rawValue: '3.5714'
    formattedValue: (  3.6)
  - operationId: Mth01_CatVar_Summ_ByGrp_1_n
    resultGroups:
    - groupingId: AnlsGrouping_01_Trt
      groupId: AnlsGrouping_01_Trt_3
    - groupingId: AnlsGrouping_06_Soc
      groupValue: REPRODUCTIVE SYSTEM AND BREAST DISORDERS
    rawValue: '1'
    formattedValue: '1'
  - operationId: Mth01_CatVar_Summ_ByGrp_2_pct
    resultGroups:
    - groupingId: AnlsGrouping_01_Trt
      groupId: AnlsGrouping_01_Trt_3
    - groupingId: AnlsGrouping_06_Soc
      groupValue: REPRODUCTIVE SYSTEM AND BREAST DISORDERS
    rawValue: '1.1905'
    formattedValue: (  1.2)
  - operationId: Mth01_CatVar_Summ_ByGrp_1_n
    resultGroups:
    - groupingId: AnlsGrouping_01_Trt
      groupId: AnlsGrouping_01_Trt_3
    - groupingId: AnlsGrouping_06_Soc
      groupValue: RESPIRATORY, THORACIC AND MEDIASTINAL DISORDERS
    rawValue: '10'
    formattedValue: '10'
  - operationId: Mth01_CatVar_Summ_ByGrp_2_pct
    resultGroups:
    - groupingId: AnlsGrouping_01_Trt
      groupId: AnlsGrouping_01_Trt_3
    - groupingId: AnlsGrouping_06_Soc
      groupValue: RESPIRATORY, THORACIC AND MEDIASTINAL DISORDERS
    rawValue: '11.9048'
    formattedValue: ( 11.9)
  - operationId: Mth01_CatVar_Summ_ByGrp_1_n
    resultGroups:
    - groupingId: AnlsGrouping_01_Trt
      groupId: AnlsGrouping_01_Trt_3
    - groupingId: AnlsGrouping_06_Soc
      groupValue: SKIN AND SUBCUTANEOUS TISSUE DISORDERS
    rawValue: '40'
    formattedValue: '40'
  - operationId: Mth01_CatVar_Summ_ByGrp_2_pct
    resultGroups:
    - groupingId: AnlsGrouping_01_Trt
      groupId: AnlsGrouping_01_Trt_3
    - groupingId: AnlsGrouping_06_Soc
      groupValue: SKIN AND SUBCUTANEOUS TISSUE DISORDERS
    rawValue: '47.619'
    formattedValue: ( 47.6)
  - operationId: Mth01_CatVar_Summ_ByGrp_1_n
    resultGroups:
    - groupingId: AnlsGrouping_01_Trt
      groupId: AnlsGrouping_01_Trt_3
    - groupingId: AnlsGrouping_06_Soc
      groupValue: SOCIAL CIRCUMSTANCES
    rawValue: '1'
    formattedValue: '1'
  - operationId: Mth01_CatVar_Summ_ByGrp_2_pct
    resultGroups:
    - groupingId: AnlsGrouping_01_Trt
      groupId: AnlsGrouping_01_Trt_3
    - groupingId: AnlsGrouping_06_Soc
      groupValue: SOCIAL CIRCUMSTANCES
    rawValue: '1.1905'
    formattedValue: (  1.2)
  - operationId: Mth01_CatVar_Summ_ByGrp_1_n
    resultGroups:
    - groupingId: AnlsGrouping_01_Trt
      groupId: AnlsGrouping_01_Trt_3
    - groupingId: AnlsGrouping_06_Soc
      groupValue: SURGICAL AND MEDICAL PROCEDURES
    rawValue: '2'
    formattedValue: '2'
  - operationId: Mth01_CatVar_Summ_ByGrp_2_pct
    resultGroups:
    - groupingId: AnlsGrouping_01_Trt
      groupId: AnlsGrouping_01_Trt_3
    - groupingId: AnlsGrouping_06_Soc
      groupValue: SURGICAL AND MEDICAL PROCEDURES
    rawValue: '2.381'
    formattedValue: (  2.4)
  - operationId: Mth01_CatVar_Summ_ByGrp_1_n
    resultGroups:
    - groupingId: AnlsGrouping_01_Trt
      groupId: AnlsGrouping_01_Trt_3
    - groupingId: AnlsGrouping_06_Soc
      groupValue: VASCULAR DISORDERS
    rawValue: '1'
    formattedValue: '1'
  - operationId: Mth01_CatVar_Summ_ByGrp_2_pct
    resultGroups:
    - groupingId: AnlsGrouping_01_Trt
      groupId: AnlsGrouping_01_Trt_3
    - groupingId: AnlsGrouping_06_Soc
      groupValue: VASCULAR DISORDERS
    rawValue: '1.1905'
    formattedValue: (  1.2)
- name: Comparison of Subjects with TEAEs by Treatment and System Organ Class - Placebo
    vs Low Dose
  id: An07_09_Soc_Comp_ByTrt_PlacLow
  reason:
    controlledTerm: SPECIFIED IN SAP
  purpose:
    controlledTerm: PRIMARY OUTCOME MEASURE
  methodId: Mth05_CatVar_Comp_FishEx
  version: 1
  documentRefs:
  - referenceDocumentId: CDISCPILOT01_SAP
    pageRefs:
    - refType: PhysicalRef
      label: 11.2. Adverse Events
      firstPage: 15
      lastPage: 16
  categoryIds:
  - Catn_01_Grp_2_Saf
  - Catn_02_Dclass_2_Evt
  - Catn_04_EvtDType_1_Ae
  - Catn_05_EvtAType_1_Occ
  dataset: ADAE
  variable: USUBJID
  analysisSetId: AnalysisSet_02_SAF
  dataSubsetId: Dss11_TEAE_PlacLow
  orderedGroupings:
  - order: 1
    groupingId: AnlsGrouping_01_Trt
    resultsByGroup: false
  - order: 2
    groupingId: AnlsGrouping_06_Soc
    resultsByGroup: true
  results:
  - operationId: Mth03_CatVar_Comp_FishEx_1_pval
    resultGroups:
    - groupingId: AnlsGrouping_01_Trt
    - groupingId: AnlsGrouping_06_Soc
      groupValue: VASCULAR DISORDERS
    rawValue: '1'
    formattedValue: '1'
- name: Comparison of Subjects with TEAEs by Treatment and System Organ Class - Placebo
    vs High Dose
  id: An07_09_Soc_Comp_ByTrt_PlacHigh
  reason:
    controlledTerm: SPECIFIED IN SAP
  purpose:
    controlledTerm: PRIMARY OUTCOME MEASURE
  methodId: Mth05_CatVar_Comp_FishEx
  version: 1
  documentRefs:
  - referenceDocumentId: CDISCPILOT01_SAP
    pageRefs:
    - refType: PhysicalRef
      label: 11.2. Adverse Events
      firstPage: 15
      lastPage: 16
  categoryIds:
  - Catn_01_Grp_2_Saf
  - Catn_02_Dclass_2_Evt
  - Catn_04_EvtDType_1_Ae
  - Catn_05_EvtAType_1_Occ
  dataset: ADAE
  variable: USUBJID
  analysisSetId: AnalysisSet_02_SAF
  dataSubsetId: Dss12_TEAE_PlacHigh
  orderedGroupings:
  - order: 1
    groupingId: AnlsGrouping_01_Trt
    resultsByGroup: false
  - order: 2
    groupingId: AnlsGrouping_06_Soc
    resultsByGroup: true
  results:
  - operationId: Mth03_CatVar_Comp_FishEx_1_pval
    resultGroups:
    - groupingId: AnlsGrouping_01_Trt
    - groupingId: AnlsGrouping_06_Soc
      groupValue: VASCULAR DISORDERS
    rawValue: '0.6206285654'
    formattedValue: '0.6206'
- name: Summary of Subjects with TEAEs by Treatment, System Organ Class and Preferred
    Term
  id: An07_10_SocPt_Summ_ByTrt
  reason:
    controlledTerm: SPECIFIED IN SAP
  purpose:
    controlledTerm: PRIMARY OUTCOME MEASURE
  methodId: Mth01_CatVar_Summ_ByGrp
  version: 1
  documentRefs:
  - referenceDocumentId: CDISCPILOT01_SAP
    pageRefs:
    - refType: PhysicalRef
      label: 11.2. Adverse Events
      firstPage: 15
      lastPage: 16
  categoryIds:
  - Catn_01_Grp_2_Saf
  - Catn_02_Dclass_2_Evt
  - Catn_04_EvtDType_1_Ae
  - Catn_05_EvtAType_1_Occ
  dataset: ADAE
  variable: USUBJID
  analysisSetId: AnalysisSet_02_SAF
  dataSubsetId: Dss01_TEAE
  orderedGroupings:
  - order: 1
    groupingId: AnlsGrouping_01_Trt
    resultsByGroup: true
  - order: 2
    groupingId: AnlsGrouping_06_Soc
    resultsByGroup: true
  - order: 3
    groupingId: AnlsGrouping_07_Pt
    resultsByGroup: true
  referencedAnalysisOperations:
  - referencedOperationRelationshipId: Mth01_CatVar_Summ_ByGrp_2_pct_NUM
    analysisId: An07_10_SocPt_Summ_ByTrt
  - referencedOperationRelationshipId: Mth01_CatVar_Summ_ByGrp_2_pct_DEN
    analysisId: An01_05_SAF_Summ_ByTrt
  results:
  - operationId: Mth01_CatVar_Summ_ByGrp_1_n
    resultGroups:
    - groupingId: AnlsGrouping_01_Trt
      groupId: AnlsGrouping_01_Trt_1
    - groupingId: AnlsGrouping_06_Soc
      groupValue: CARDIAC DISORDERS
    - groupingId: AnlsGrouping_07_Pt
      groupValue: ATRIAL FIBRILLATION
    rawValue: '1'
    formattedValue: '1'
  - operationId: Mth01_CatVar_Summ_ByGrp_2_pct
    resultGroups:
    - groupingId: AnlsGrouping_01_Trt
      groupId: AnlsGrouping_01_Trt_1
    - groupingId: AnlsGrouping_06_Soc
      groupValue: CARDIAC DISORDERS
    - groupingId: AnlsGrouping_07_Pt
      groupValue: ATRIAL FIBRILLATION
    rawValue: '1.1628'
    formattedValue: (  1.2)
  - operationId: Mth01_CatVar_Summ_ByGrp_1_n
    resultGroups:
    - groupingId: AnlsGrouping_01_Trt
      groupId: AnlsGrouping_01_Trt_1
    - groupingId: AnlsGrouping_06_Soc
      groupValue: CARDIAC DISORDERS
    - groupingId: AnlsGrouping_07_Pt
      groupValue: ATRIAL FLUTTER
    rawValue: '0'
    formattedValue: '0'
  - operationId: Mth01_CatVar_Summ_ByGrp_2_pct
    resultGroups:
    - groupingId: AnlsGrouping_01_Trt
      groupId: AnlsGrouping_01_Trt_1
    - groupingId: AnlsGrouping_06_Soc
      groupValue: CARDIAC DISORDERS
    - groupingId: AnlsGrouping_07_Pt
      groupValue: ATRIAL FLUTTER
    rawValue: '0'
    formattedValue: (  0.0)
  - operationId: Mth01_CatVar_Summ_ByGrp_1_n
    resultGroups:
    - groupingId: AnlsGrouping_01_Trt
      groupId: AnlsGrouping_01_Trt_1
    - groupingId: AnlsGrouping_06_Soc
      groupValue: CARDIAC DISORDERS
    - groupingId: AnlsGrouping_07_Pt
      groupValue: ATRIAL HYPERTROPHY
    rawValue: '1'
    formattedValue: '1'
  - operationId: Mth01_CatVar_Summ_ByGrp_2_pct
    resultGroups:
    - groupingId: AnlsGrouping_01_Trt
      groupId: AnlsGrouping_01_Trt_1
    - groupingId: AnlsGrouping_06_Soc
      groupValue: CARDIAC DISORDERS
    - groupingId: AnlsGrouping_07_Pt
      groupValue: ATRIAL HYPERTROPHY
    rawValue: '1.1628'
    formattedValue: (  1.2)
  - operationId: Mth01_CatVar_Summ_ByGrp_1_n
    resultGroups:
    - groupingId: AnlsGrouping_01_Trt
      groupId: AnlsGrouping_01_Trt_1
    - groupingId: AnlsGrouping_06_Soc
      groupValue: CARDIAC DISORDERS
    - groupingId: AnlsGrouping_07_Pt
      groupValue: ATRIOVENTRICULAR BLOCK FIRST DEGREE
    rawValue: '1'
    formattedValue: '1'
  - operationId: Mth01_CatVar_Summ_ByGrp_2_pct
    resultGroups:
    - groupingId: AnlsGrouping_01_Trt
      groupId: AnlsGrouping_01_Trt_1
    - groupingId: AnlsGrouping_06_Soc
      groupValue: CARDIAC DISORDERS
    - groupingId: AnlsGrouping_07_Pt
      groupValue: ATRIOVENTRICULAR BLOCK FIRST DEGREE
    rawValue: '1.1628'
    formattedValue: (  1.2)
  - operationId: Mth01_CatVar_Summ_ByGrp_1_n
    resultGroups:
    - groupingId: AnlsGrouping_01_Trt
      groupId: AnlsGrouping_01_Trt_1
    - groupingId: AnlsGrouping_06_Soc
      groupValue: CARDIAC DISORDERS
    - groupingId: AnlsGrouping_07_Pt
      groupValue: ATRIOVENTRICULAR BLOCK SECOND DEGREE
    rawValue: '1'
    formattedValue: '1'
  - operationId: Mth01_CatVar_Summ_ByGrp_2_pct
    resultGroups:
    - groupingId: AnlsGrouping_01_Trt
      groupId: AnlsGrouping_01_Trt_1
    - groupingId: AnlsGrouping_06_Soc
      groupValue: CARDIAC DISORDERS
    - groupingId: AnlsGrouping_07_Pt
      groupValue: ATRIOVENTRICULAR BLOCK SECOND DEGREE
    rawValue: '1.1628'
    formattedValue: (  1.2)
  - operationId: Mth01_CatVar_Summ_ByGrp_1_n
    resultGroups:
    - groupingId: AnlsGrouping_01_Trt
      groupId: AnlsGrouping_01_Trt_1
    - groupingId: AnlsGrouping_06_Soc
      groupValue: CARDIAC DISORDERS
    - groupingId: AnlsGrouping_07_Pt
      groupValue: BRADYCARDIA
    rawValue: '1'
    formattedValue: '1'
  - operationId: Mth01_CatVar_Summ_ByGrp_2_pct
    resultGroups:
    - groupingId: AnlsGrouping_01_Trt
      groupId: AnlsGrouping_01_Trt_1
    - groupingId: AnlsGrouping_06_Soc
      groupValue: CARDIAC DISORDERS
    - groupingId: AnlsGrouping_07_Pt
      groupValue: BRADYCARDIA
    rawValue: '1.1628'
    formattedValue: (  1.2)
  - operationId: Mth01_CatVar_Summ_ByGrp_1_n
    resultGroups:
    - groupingId: AnlsGrouping_01_Trt
      groupId: AnlsGrouping_01_Trt_1
    - groupingId: AnlsGrouping_06_Soc
      groupValue: CARDIAC DISORDERS
    - groupingId: AnlsGrouping_07_Pt
      groupValue: BUNDLE BRANCH BLOCK LEFT
    rawValue: '1'
    formattedValue: '1'
  - operationId: Mth01_CatVar_Summ_ByGrp_2_pct
    resultGroups:
    - groupingId: AnlsGrouping_01_Trt
      groupId: AnlsGrouping_01_Trt_1
    - groupingId: AnlsGrouping_06_Soc
      groupValue: CARDIAC DISORDERS
    - groupingId: AnlsGrouping_07_Pt
      groupValue: BUNDLE BRANCH BLOCK LEFT
    rawValue: '1.1628'
    formattedValue: (  1.2)
  - operationId: Mth01_CatVar_Summ_ByGrp_1_n
    resultGroups:
    - groupingId: AnlsGrouping_01_Trt
      groupId: AnlsGrouping_01_Trt_1
    - groupingId: AnlsGrouping_06_Soc
      groupValue: CARDIAC DISORDERS
    - groupingId: AnlsGrouping_07_Pt
      groupValue: BUNDLE BRANCH BLOCK RIGHT
    rawValue: '1'
    formattedValue: '1'
  - operationId: Mth01_CatVar_Summ_ByGrp_2_pct
    resultGroups:
    - groupingId: AnlsGrouping_01_Trt
      groupId: AnlsGrouping_01_Trt_1
    - groupingId: AnlsGrouping_06_Soc
      groupValue: CARDIAC DISORDERS
    - groupingId: AnlsGrouping_07_Pt
      groupValue: BUNDLE BRANCH BLOCK RIGHT
    rawValue: '1.1628'
    formattedValue: (  1.2)
  - operationId: Mth01_CatVar_Summ_ByGrp_1_n
    resultGroups:
    - groupingId: AnlsGrouping_01_Trt
      groupId: AnlsGrouping_01_Trt_1
    - groupingId: AnlsGrouping_06_Soc
      groupValue: CARDIAC DISORDERS
    - groupingId: AnlsGrouping_07_Pt
      groupValue: CARDIAC DISORDER
    rawValue: '0'
    formattedValue: '0'
  - operationId: Mth01_CatVar_Summ_ByGrp_2_pct
    resultGroups:
    - groupingId: AnlsGrouping_01_Trt
      groupId: AnlsGrouping_01_Trt_1
    - groupingId: AnlsGrouping_06_Soc
      groupValue: CARDIAC DISORDERS
    - groupingId: AnlsGrouping_07_Pt
      groupValue: CARDIAC DISORDER
    rawValue: '0'
    formattedValue: (  0.0)
  - operationId: Mth01_CatVar_Summ_ByGrp_1_n
    resultGroups:
    - groupingId: AnlsGrouping_01_Trt
      groupId: AnlsGrouping_01_Trt_1
    - groupingId: AnlsGrouping_06_Soc
      groupValue: CARDIAC DISORDERS
    - groupingId: AnlsGrouping_07_Pt
      groupValue: CARDIAC FAILURE CONGESTIVE
    rawValue: '1'
    formattedValue: '1'
  - operationId: Mth01_CatVar_Summ_ByGrp_2_pct
    resultGroups:
    - groupingId: AnlsGrouping_01_Trt
      groupId: AnlsGrouping_01_Trt_1
    - groupingId: AnlsGrouping_06_Soc
      groupValue: CARDIAC DISORDERS
    - groupingId: AnlsGrouping_07_Pt
      groupValue: CARDIAC FAILURE CONGESTIVE
    rawValue: '1.1628'
    formattedValue: (  1.2)
  - operationId: Mth01_CatVar_Summ_ByGrp_1_n
    resultGroups:
    - groupingId: AnlsGrouping_01_Trt
      groupId: AnlsGrouping_01_Trt_1
    - groupingId: AnlsGrouping_06_Soc
      groupValue: CARDIAC DISORDERS
    - groupingId: AnlsGrouping_07_Pt
      groupValue: MYOCARDIAL INFARCTION
    rawValue: '4'
    formattedValue: '4'
  - operationId: Mth01_CatVar_Summ_ByGrp_2_pct
    resultGroups:
    - groupingId: AnlsGrouping_01_Trt
      groupId: AnlsGrouping_01_Trt_1
    - groupingId: AnlsGrouping_06_Soc
      groupValue: CARDIAC DISORDERS
    - groupingId: AnlsGrouping_07_Pt
      groupValue: MYOCARDIAL INFARCTION
    rawValue: '4.6512'
    formattedValue: (  4.7)
  - operationId: Mth01_CatVar_Summ_ByGrp_1_n
    resultGroups:
    - groupingId: AnlsGrouping_01_Trt
      groupId: AnlsGrouping_01_Trt_1
    - groupingId: AnlsGrouping_06_Soc
      groupValue: CARDIAC DISORDERS
    - groupingId: AnlsGrouping_07_Pt
      groupValue: PALPITATIONS
    rawValue: '0'
    formattedValue: '0'
  - operationId: Mth01_CatVar_Summ_ByGrp_2_pct
    resultGroups:
    - groupingId: AnlsGrouping_01_Trt
      groupId: AnlsGrouping_01_Trt_1
    - groupingId: AnlsGrouping_06_Soc
      groupValue: CARDIAC DISORDERS
    - groupingId: AnlsGrouping_07_Pt
      groupValue: PALPITATIONS
    rawValue: '0'
    formattedValue: (  0.0)
  - operationId: Mth01_CatVar_Summ_ByGrp_1_n
    resultGroups:
    - groupingId: AnlsGrouping_01_Trt
      groupId: AnlsGrouping_01_Trt_1
    - groupingId: AnlsGrouping_06_Soc
      groupValue: CARDIAC DISORDERS
    - groupingId: AnlsGrouping_07_Pt
      groupValue: SINUS ARRHYTHMIA
    rawValue: '1'
    formattedValue: '1'
  - operationId: Mth01_CatVar_Summ_ByGrp_2_pct
    resultGroups:
    - groupingId: AnlsGrouping_01_Trt
      groupId: AnlsGrouping_01_Trt_1
    - groupingId: AnlsGrouping_06_Soc
      groupValue: CARDIAC DISORDERS
    - groupingId: AnlsGrouping_07_Pt
      groupValue: SINUS ARRHYTHMIA
    rawValue: '1.1628'
    formattedValue: (  1.2)
  - operationId: Mth01_CatVar_Summ_ByGrp_1_n
    resultGroups:
    - groupingId: AnlsGrouping_01_Trt
      groupId: AnlsGrouping_01_Trt_1
    - groupingId: AnlsGrouping_06_Soc
      groupValue: CARDIAC DISORDERS
    - groupingId: AnlsGrouping_07_Pt
      groupValue: SINUS BRADYCARDIA
    rawValue: '2'
    formattedValue: '2'
  - operationId: Mth01_CatVar_Summ_ByGrp_2_pct
    resultGroups:
    - groupingId: AnlsGrouping_01_Trt
      groupId: AnlsGrouping_01_Trt_1
    - groupingId: AnlsGrouping_06_Soc
      groupValue: CARDIAC DISORDERS
    - groupingId: AnlsGrouping_07_Pt
      groupValue: SINUS BRADYCARDIA
    rawValue: '2.3256'
    formattedValue: (  2.3)
  - operationId: Mth01_CatVar_Summ_ByGrp_1_n
    resultGroups:
    - groupingId: AnlsGrouping_01_Trt
      groupId: AnlsGrouping_01_Trt_1
    - groupingId: AnlsGrouping_06_Soc
      groupValue: CARDIAC DISORDERS
    - groupingId: AnlsGrouping_07_Pt
      groupValue: SUPRAVENTRICULAR EXTRASYSTOLES
    rawValue: '1'
    formattedValue: '1'
  - operationId: Mth01_CatVar_Summ_ByGrp_2_pct
    resultGroups:
    - groupingId: AnlsGrouping_01_Trt
      groupId: AnlsGrouping_01_Trt_1
    - groupingId: AnlsGrouping_06_Soc
      groupValue: CARDIAC DISORDERS
    - groupingId: AnlsGrouping_07_Pt
      groupValue: SUPRAVENTRICULAR EXTRASYSTOLES
    rawValue: '1.1628'
    formattedValue: (  1.2)
  - operationId: Mth01_CatVar_Summ_ByGrp_1_n
    resultGroups:
    - groupingId: AnlsGrouping_01_Trt
      groupId: AnlsGrouping_01_Trt_1
    - groupingId: AnlsGrouping_06_Soc
      groupValue: CARDIAC DISORDERS
    - groupingId: AnlsGrouping_07_Pt
      groupValue: SUPRAVENTRICULAR TACHYCARDIA
    rawValue: '0'
    formattedValue: '0'
  - operationId: Mth01_CatVar_Summ_ByGrp_2_pct
    resultGroups:
    - groupingId: AnlsGrouping_01_Trt
      groupId: AnlsGrouping_01_Trt_1
    - groupingId: AnlsGrouping_06_Soc
      groupValue: CARDIAC DISORDERS
    - groupingId: AnlsGrouping_07_Pt
      groupValue: SUPRAVENTRICULAR TACHYCARDIA
    rawValue: '0'
    formattedValue: (  0.0)
  - operationId: Mth01_CatVar_Summ_ByGrp_1_n
    resultGroups:
    - groupingId: AnlsGrouping_01_Trt
      groupId: AnlsGrouping_01_Trt_1
    - groupingId: AnlsGrouping_06_Soc
      groupValue: CARDIAC DISORDERS
    - groupingId: AnlsGrouping_07_Pt
      groupValue: TACHYCARDIA
    rawValue: '1'
    formattedValue: '1'
  - operationId: Mth01_CatVar_Summ_ByGrp_2_pct
    resultGroups:
    - groupingId: AnlsGrouping_01_Trt
      groupId: AnlsGrouping_01_Trt_1
    - groupingId: AnlsGrouping_06_Soc
      groupValue: CARDIAC DISORDERS
    - groupingId: AnlsGrouping_07_Pt
      groupValue: TACHYCARDIA
    rawValue: '1.1628'
    formattedValue: (  1.2)
  - operationId: Mth01_CatVar_Summ_ByGrp_1_n
    resultGroups:
    - groupingId: AnlsGrouping_01_Trt
      groupId: AnlsGrouping_01_Trt_1
    - groupingId: AnlsGrouping_06_Soc
      groupValue: CARDIAC DISORDERS
    - groupingId: AnlsGrouping_07_Pt
      groupValue: VENTRICULAR EXTRASYSTOLES
    rawValue: '0'
    formattedValue: '0'
  - operationId: Mth01_CatVar_Summ_ByGrp_2_pct
    resultGroups:
    - groupingId: AnlsGrouping_01_Trt
      groupId: AnlsGrouping_01_Trt_1
    - groupingId: AnlsGrouping_06_Soc
      groupValue: CARDIAC DISORDERS
    - groupingId: AnlsGrouping_07_Pt
      groupValue: VENTRICULAR EXTRASYSTOLES
    rawValue: '0'
    formattedValue: (  0.0)
  - operationId: Mth01_CatVar_Summ_ByGrp_1_n
    resultGroups:
    - groupingId: AnlsGrouping_01_Trt
      groupId: AnlsGrouping_01_Trt_1
    - groupingId: AnlsGrouping_06_Soc
      groupValue: CARDIAC DISORDERS
    - groupingId: AnlsGrouping_07_Pt
      groupValue: VENTRICULAR HYPERTROPHY
    rawValue: '1'
    formattedValue: '1'
  - operationId: Mth01_CatVar_Summ_ByGrp_2_pct
    resultGroups:
    - groupingId: AnlsGrouping_01_Trt
      groupId: AnlsGrouping_01_Trt_1
    - groupingId: AnlsGrouping_06_Soc
      groupValue: CARDIAC DISORDERS
    - groupingId: AnlsGrouping_07_Pt
      groupValue: VENTRICULAR HYPERTROPHY
    rawValue: '1.1628'
    formattedValue: (  1.2)
  - operationId: Mth01_CatVar_Summ_ByGrp_1_n
    resultGroups:
    - groupingId: AnlsGrouping_01_Trt
      groupId: AnlsGrouping_01_Trt_1
    - groupingId: AnlsGrouping_06_Soc
      groupValue: CARDIAC DISORDERS
    - groupingId: AnlsGrouping_07_Pt
      groupValue: WOLFF-PARKINSON-WHITE SYNDROME
    rawValue: '0'
    formattedValue: '0'
  - operationId: Mth01_CatVar_Summ_ByGrp_2_pct
    resultGroups:
    - groupingId: AnlsGrouping_01_Trt
      groupId: AnlsGrouping_01_Trt_1
    - groupingId: AnlsGrouping_06_Soc
      groupValue: CARDIAC DISORDERS
    - groupingId: AnlsGrouping_07_Pt
      groupValue: WOLFF-PARKINSON-WHITE SYNDROME
    rawValue: '0'
    formattedValue: (  0.0)
  - operationId: Mth01_CatVar_Summ_ByGrp_1_n
    resultGroups:
    - groupingId: AnlsGrouping_01_Trt
      groupId: AnlsGrouping_01_Trt_1
    - groupingId: AnlsGrouping_06_Soc
      groupValue: CONGENITAL, FAMILIAL AND GENETIC DISORDERS
    - groupingId: AnlsGrouping_07_Pt
      groupValue: VENTRICULAR SEPTAL DEFECT
    rawValue: '0'
    formattedValue: '0'
  - operationId: Mth01_CatVar_Summ_ByGrp_2_pct
    resultGroups:
    - groupingId: AnlsGrouping_01_Trt
      groupId: AnlsGrouping_01_Trt_1
    - groupingId: AnlsGrouping_06_Soc
      groupValue: CONGENITAL, FAMILIAL AND GENETIC DISORDERS
    - groupingId: AnlsGrouping_07_Pt
      groupValue: VENTRICULAR SEPTAL DEFECT
    rawValue: '0'
    formattedValue: (  0.0)
  - operationId: Mth01_CatVar_Summ_ByGrp_1_n
    resultGroups:
    - groupingId: AnlsGrouping_01_Trt
      groupId: AnlsGrouping_01_Trt_1
    - groupingId: AnlsGrouping_06_Soc
      groupValue: EAR AND LABYRINTH DISORDERS
    - groupingId: AnlsGrouping_07_Pt
      groupValue: CERUMEN IMPACTION
    rawValue: '0'
    formattedValue: '0'
  - operationId: Mth01_CatVar_Summ_ByGrp_2_pct
    resultGroups:
    - groupingId: AnlsGrouping_01_Trt
      groupId: AnlsGrouping_01_Trt_1
    - groupingId: AnlsGrouping_06_Soc
      groupValue: EAR AND LABYRINTH DISORDERS
    - groupingId: AnlsGrouping_07_Pt
      groupValue: CERUMEN IMPACTION
    rawValue: '0'
    formattedValue: (  0.0)
  - operationId: Mth01_CatVar_Summ_ByGrp_1_n
    resultGroups:
    - groupingId: AnlsGrouping_01_Trt
      groupId: AnlsGrouping_01_Trt_1
    - groupingId: AnlsGrouping_06_Soc
      groupValue: EAR AND LABYRINTH DISORDERS
    - groupingId: AnlsGrouping_07_Pt
      groupValue: EAR PAIN
    rawValue: '1'
    formattedValue: '1'
  - operationId: Mth01_CatVar_Summ_ByGrp_2_pct
    resultGroups:
    - groupingId: AnlsGrouping_01_Trt
      groupId: AnlsGrouping_01_Trt_1
    - groupingId: AnlsGrouping_06_Soc
      groupValue: EAR AND LABYRINTH DISORDERS
    - groupingId: AnlsGrouping_07_Pt
      groupValue: EAR PAIN
    rawValue: '1.1628'
    formattedValue: (  1.2)
  - operationId: Mth01_CatVar_Summ_ByGrp_1_n
    resultGroups:
    - groupingId: AnlsGrouping_01_Trt
      groupId: AnlsGrouping_01_Trt_1
    - groupingId: AnlsGrouping_06_Soc
      groupValue: EAR AND LABYRINTH DISORDERS
    - groupingId: AnlsGrouping_07_Pt
      groupValue: VERTIGO
    rawValue: '0'
    formattedValue: '0'
  - operationId: Mth01_CatVar_Summ_ByGrp_2_pct
    resultGroups:
    - groupingId: AnlsGrouping_01_Trt
      groupId: AnlsGrouping_01_Trt_1
    - groupingId: AnlsGrouping_06_Soc
      groupValue: EAR AND LABYRINTH DISORDERS
    - groupingId: AnlsGrouping_07_Pt
      groupValue: VERTIGO
    rawValue: '0'
    formattedValue: (  0.0)
  - operationId: Mth01_CatVar_Summ_ByGrp_1_n
    resultGroups:
    - groupingId: AnlsGrouping_01_Trt
      groupId: AnlsGrouping_01_Trt_1
    - groupingId: AnlsGrouping_06_Soc
      groupValue: EYE DISORDERS
    - groupingId: AnlsGrouping_07_Pt
      groupValue: CONJUNCTIVAL HAEMORRHAGE
    rawValue: '0'
    formattedValue: '0'
  - operationId: Mth01_CatVar_Summ_ByGrp_2_pct
    resultGroups:
    - groupingId: AnlsGrouping_01_Trt
      groupId: AnlsGrouping_01_Trt_1
    - groupingId: AnlsGrouping_06_Soc
      groupValue: EYE DISORDERS
    - groupingId: AnlsGrouping_07_Pt
      groupValue: CONJUNCTIVAL HAEMORRHAGE
    rawValue: '0'
    formattedValue: (  0.0)
  - operationId: Mth01_CatVar_Summ_ByGrp_1_n
    resultGroups:
    - groupingId: AnlsGrouping_01_Trt
      groupId: AnlsGrouping_01_Trt_1
    - groupingId: AnlsGrouping_06_Soc
      groupValue: EYE DISORDERS
    - groupingId: AnlsGrouping_07_Pt
      groupValue: CONJUNCTIVITIS
    rawValue: '1'
    formattedValue: '1'
  - operationId: Mth01_CatVar_Summ_ByGrp_2_pct
    resultGroups:
    - groupingId: AnlsGrouping_01_Trt
      groupId: AnlsGrouping_01_Trt_1
    - groupingId: AnlsGrouping_06_Soc
      groupValue: EYE DISORDERS
    - groupingId: AnlsGrouping_07_Pt
      groupValue: CONJUNCTIVITIS
    rawValue: '1.1628'
    formattedValue: (  1.2)
  - operationId: Mth01_CatVar_Summ_ByGrp_1_n
    resultGroups:
    - groupingId: AnlsGrouping_01_Trt
      groupId: AnlsGrouping_01_Trt_1
    - groupingId: AnlsGrouping_06_Soc
      groupValue: EYE DISORDERS
    - groupingId: AnlsGrouping_07_Pt
      groupValue: EYE ALLERGY
    rawValue: '1'
    formattedValue: '1'
  - operationId: Mth01_CatVar_Summ_ByGrp_2_pct
    resultGroups:
    - groupingId: AnlsGrouping_01_Trt
      groupId: AnlsGrouping_01_Trt_1
    - groupingId: AnlsGrouping_06_Soc
      groupValue: EYE DISORDERS
    - groupingId: AnlsGrouping_07_Pt
      groupValue: EYE ALLERGY
    rawValue: '1.1628'
    formattedValue: (  1.2)
  - operationId: Mth01_CatVar_Summ_ByGrp_1_n
    resultGroups:
    - groupingId: AnlsGrouping_01_Trt
      groupId: AnlsGrouping_01_Trt_1
    - groupingId: AnlsGrouping_06_Soc
      groupValue: EYE DISORDERS
    - groupingId: AnlsGrouping_07_Pt
      groupValue: EYE PRURITUS
    rawValue: '1'
    formattedValue: '1'
  - operationId: Mth01_CatVar_Summ_ByGrp_2_pct
    resultGroups:
    - groupingId: AnlsGrouping_01_Trt
      groupId: AnlsGrouping_01_Trt_1
    - groupingId: AnlsGrouping_06_Soc
      groupValue: EYE DISORDERS
    - groupingId: AnlsGrouping_07_Pt
      groupValue: EYE PRURITUS
    rawValue: '1.1628'
    formattedValue: (  1.2)
  - operationId: Mth01_CatVar_Summ_ByGrp_1_n
    resultGroups:
    - groupingId: AnlsGrouping_01_Trt
      groupId: AnlsGrouping_01_Trt_1
    - groupingId: AnlsGrouping_06_Soc
      groupValue: EYE DISORDERS
    - groupingId: AnlsGrouping_07_Pt
      groupValue: EYE SWELLING
    rawValue: '1'
    formattedValue: '1'
  - operationId: Mth01_CatVar_Summ_ByGrp_2_pct
    resultGroups:
    - groupingId: AnlsGrouping_01_Trt
      groupId: AnlsGrouping_01_Trt_1
    - groupingId: AnlsGrouping_06_Soc
      groupValue: EYE DISORDERS
    - groupingId: AnlsGrouping_07_Pt
      groupValue: EYE SWELLING
    rawValue: '1.1628'
    formattedValue: (  1.2)
  - operationId: Mth01_CatVar_Summ_ByGrp_1_n
    resultGroups:
    - groupingId: AnlsGrouping_01_Trt
      groupId: AnlsGrouping_01_Trt_1
    - groupingId: AnlsGrouping_06_Soc
      groupValue: EYE DISORDERS
    - groupingId: AnlsGrouping_07_Pt
      groupValue: VISION BLURRED
    rawValue: '0'
    formattedValue: '0'
  - operationId: Mth01_CatVar_Summ_ByGrp_2_pct
    resultGroups:
    - groupingId: AnlsGrouping_01_Trt
      groupId: AnlsGrouping_01_Trt_1
    - groupingId: AnlsGrouping_06_Soc
      groupValue: EYE DISORDERS
    - groupingId: AnlsGrouping_07_Pt
      groupValue: VISION BLURRED
    rawValue: '0'
    formattedValue: (  0.0)
  - operationId: Mth01_CatVar_Summ_ByGrp_1_n
    resultGroups:
    - groupingId: AnlsGrouping_01_Trt
      groupId: AnlsGrouping_01_Trt_1
    - groupingId: AnlsGrouping_06_Soc
      groupValue: GASTROINTESTINAL DISORDERS
    - groupingId: AnlsGrouping_07_Pt
      groupValue: ABDOMINAL DISCOMFORT
    rawValue: '0'
    formattedValue: '0'
  - operationId: Mth01_CatVar_Summ_ByGrp_2_pct
    resultGroups:
    - groupingId: AnlsGrouping_01_Trt
      groupId: AnlsGrouping_01_Trt_1
    - groupingId: AnlsGrouping_06_Soc
      groupValue: GASTROINTESTINAL DISORDERS
    - groupingId: AnlsGrouping_07_Pt
      groupValue: ABDOMINAL DISCOMFORT
    rawValue: '0'
    formattedValue: (  0.0)
  - operationId: Mth01_CatVar_Summ_ByGrp_1_n
    resultGroups:
    - groupingId: AnlsGrouping_01_Trt
      groupId: AnlsGrouping_01_Trt_1
    - groupingId: AnlsGrouping_06_Soc
      groupValue: GASTROINTESTINAL DISORDERS
    - groupingId: AnlsGrouping_07_Pt
      groupValue: ABDOMINAL PAIN
    rawValue: '1'
    formattedValue: '1'
  - operationId: Mth01_CatVar_Summ_ByGrp_2_pct
    resultGroups:
    - groupingId: AnlsGrouping_01_Trt
      groupId: AnlsGrouping_01_Trt_1
    - groupingId: AnlsGrouping_06_Soc
      groupValue: GASTROINTESTINAL DISORDERS
    - groupingId: AnlsGrouping_07_Pt
      groupValue: ABDOMINAL PAIN
    rawValue: '1.1628'
    formattedValue: (  1.2)
  - operationId: Mth01_CatVar_Summ_ByGrp_1_n
    resultGroups:
    - groupingId: AnlsGrouping_01_Trt
      groupId: AnlsGrouping_01_Trt_1
    - groupingId: AnlsGrouping_06_Soc
      groupValue: GASTROINTESTINAL DISORDERS
    - groupingId: AnlsGrouping_07_Pt
      groupValue: CONSTIPATION
    rawValue: '1'
    formattedValue: '1'
  - operationId: Mth01_CatVar_Summ_ByGrp_2_pct
    resultGroups:
    - groupingId: AnlsGrouping_01_Trt
      groupId: AnlsGrouping_01_Trt_1
    - groupingId: AnlsGrouping_06_Soc
      groupValue: GASTROINTESTINAL DISORDERS
    - groupingId: AnlsGrouping_07_Pt
      groupValue: CONSTIPATION
    rawValue: '1.1628'
    formattedValue: (  1.2)
  - operationId: Mth01_CatVar_Summ_ByGrp_1_n
    resultGroups:
    - groupingId: AnlsGrouping_01_Trt
      groupId: AnlsGrouping_01_Trt_1
    - groupingId: AnlsGrouping_06_Soc
      groupValue: GASTROINTESTINAL DISORDERS
    - groupingId: AnlsGrouping_07_Pt
      groupValue: DIARRHOEA
    rawValue: '9'
    formattedValue: '9'
  - operationId: Mth01_CatVar_Summ_ByGrp_2_pct
    resultGroups:
    - groupingId: AnlsGrouping_01_Trt
      groupId: AnlsGrouping_01_Trt_1
    - groupingId: AnlsGrouping_06_Soc
      groupValue: GASTROINTESTINAL DISORDERS
    - groupingId: AnlsGrouping_07_Pt
      groupValue: DIARRHOEA
    rawValue: '10.4651'
    formattedValue: ( 10.5)
  - operationId: Mth01_CatVar_Summ_ByGrp_1_n
    resultGroups:
    - groupingId: AnlsGrouping_01_Trt
      groupId: AnlsGrouping_01_Trt_1
    - groupingId: AnlsGrouping_06_Soc
      groupValue: GASTROINTESTINAL DISORDERS
    - groupingId: AnlsGrouping_07_Pt
      groupValue: DYSPEPSIA
    rawValue: '1'
    formattedValue: '1'
  - operationId: Mth01_CatVar_Summ_ByGrp_2_pct
    resultGroups:
    - groupingId: AnlsGrouping_01_Trt
      groupId: AnlsGrouping_01_Trt_1
    - groupingId: AnlsGrouping_06_Soc
      groupValue: GASTROINTESTINAL DISORDERS
    - groupingId: AnlsGrouping_07_Pt
      groupValue: DYSPEPSIA
    rawValue: '1.1628'
    formattedValue: (  1.2)
  - operationId: Mth01_CatVar_Summ_ByGrp_1_n
    resultGroups:
    - groupingId: AnlsGrouping_01_Trt
      groupId: AnlsGrouping_01_Trt_1
    - groupingId: AnlsGrouping_06_Soc
      groupValue: GASTROINTESTINAL DISORDERS
    - groupingId: AnlsGrouping_07_Pt
      groupValue: DYSPHAGIA
    rawValue: '0'
    formattedValue: '0'
  - operationId: Mth01_CatVar_Summ_ByGrp_2_pct
    resultGroups:
    - groupingId: AnlsGrouping_01_Trt
      groupId: AnlsGrouping_01_Trt_1
    - groupingId: AnlsGrouping_06_Soc
      groupValue: GASTROINTESTINAL DISORDERS
    - groupingId: AnlsGrouping_07_Pt
      groupValue: DYSPHAGIA
    rawValue: '0'
    formattedValue: (  0.0)
  - operationId: Mth01_CatVar_Summ_ByGrp_1_n
    resultGroups:
    - groupingId: AnlsGrouping_01_Trt
      groupId: AnlsGrouping_01_Trt_1
    - groupingId: AnlsGrouping_06_Soc
      groupValue: GASTROINTESTINAL DISORDERS
    - groupingId: AnlsGrouping_07_Pt
      groupValue: FLATULENCE
    rawValue: '1'
    formattedValue: '1'
  - operationId: Mth01_CatVar_Summ_ByGrp_2_pct
    resultGroups:
    - groupingId: AnlsGrouping_01_Trt
      groupId: AnlsGrouping_01_Trt_1
    - groupingId: AnlsGrouping_06_Soc
      groupValue: GASTROINTESTINAL DISORDERS
    - groupingId: AnlsGrouping_07_Pt
      groupValue: FLATULENCE
    rawValue: '1.1628'
    formattedValue: (  1.2)
  - operationId: Mth01_CatVar_Summ_ByGrp_1_n
    resultGroups:
    - groupingId: AnlsGrouping_01_Trt
      groupId: AnlsGrouping_01_Trt_1
    - groupingId: AnlsGrouping_06_Soc
      groupValue: GASTROINTESTINAL DISORDERS
    - groupingId: AnlsGrouping_07_Pt
      groupValue: GASTROINTESTINAL HAEMORRHAGE
    rawValue: '0'
    formattedValue: '0'
  - operationId: Mth01_CatVar_Summ_ByGrp_2_pct
    resultGroups:
    - groupingId: AnlsGrouping_01_Trt
      groupId: AnlsGrouping_01_Trt_1
    - groupingId: AnlsGrouping_06_Soc
      groupValue: GASTROINTESTINAL DISORDERS
    - groupingId: AnlsGrouping_07_Pt
      groupValue: GASTROINTESTINAL HAEMORRHAGE
    rawValue: '0'
    formattedValue: (  0.0)
  - operationId: Mth01_CatVar_Summ_ByGrp_1_n
    resultGroups:
    - groupingId: AnlsGrouping_01_Trt
      groupId: AnlsGrouping_01_Trt_1
    - groupingId: AnlsGrouping_06_Soc
      groupValue: GASTROINTESTINAL DISORDERS
    - groupingId: AnlsGrouping_07_Pt
      groupValue: GASTROOESOPHAGEAL REFLUX DISEASE
    rawValue: '1'
    formattedValue: '1'
  - operationId: Mth01_CatVar_Summ_ByGrp_2_pct
    resultGroups:
    - groupingId: AnlsGrouping_01_Trt
      groupId: AnlsGrouping_01_Trt_1
    - groupingId: AnlsGrouping_06_Soc
      groupValue: GASTROINTESTINAL DISORDERS
    - groupingId: AnlsGrouping_07_Pt
      groupValue: GASTROOESOPHAGEAL REFLUX DISEASE
    rawValue: '1.1628'
    formattedValue: (  1.2)
  - operationId: Mth01_CatVar_Summ_ByGrp_1_n
    resultGroups:
    - groupingId: AnlsGrouping_01_Trt
      groupId: AnlsGrouping_01_Trt_1
    - groupingId: AnlsGrouping_06_Soc
      groupValue: GASTROINTESTINAL DISORDERS
    - groupingId: AnlsGrouping_07_Pt
      groupValue: GLOSSITIS
    rawValue: '1'
    formattedValue: '1'
  - operationId: Mth01_CatVar_Summ_ByGrp_2_pct
    resultGroups:
    - groupingId: AnlsGrouping_01_Trt
      groupId: AnlsGrouping_01_Trt_1
    - groupingId: AnlsGrouping_06_Soc
      groupValue: GASTROINTESTINAL DISORDERS
    - groupingId: AnlsGrouping_07_Pt
      groupValue: GLOSSITIS
    rawValue: '1.1628'
    formattedValue: (  1.2)
  - operationId: Mth01_CatVar_Summ_ByGrp_1_n
    resultGroups:
    - groupingId: AnlsGrouping_01_Trt
      groupId: AnlsGrouping_01_Trt_1
    - groupingId: AnlsGrouping_06_Soc
      groupValue: GASTROINTESTINAL DISORDERS
    - groupingId: AnlsGrouping_07_Pt
      groupValue: HIATUS HERNIA
    rawValue: '1'
    formattedValue: '1'
  - operationId: Mth01_CatVar_Summ_ByGrp_2_pct
    resultGroups:
    - groupingId: AnlsGrouping_01_Trt
      groupId: AnlsGrouping_01_Trt_1
    - groupingId: AnlsGrouping_06_Soc
      groupValue: GASTROINTESTINAL DISORDERS
    - groupingId: AnlsGrouping_07_Pt
      groupValue: HIATUS HERNIA
    rawValue: '1.1628'
    formattedValue: (  1.2)
  - operationId: Mth01_CatVar_Summ_ByGrp_1_n
    resultGroups:
    - groupingId: AnlsGrouping_01_Trt
      groupId: AnlsGrouping_01_Trt_1
    - groupingId: AnlsGrouping_06_Soc
      groupValue: GASTROINTESTINAL DISORDERS
    - groupingId: AnlsGrouping_07_Pt
      groupValue: NAUSEA
    rawValue: '3'
    formattedValue: '3'
  - operationId: Mth01_CatVar_Summ_ByGrp_2_pct
    resultGroups:
    - groupingId: AnlsGrouping_01_Trt
      groupId: AnlsGrouping_01_Trt_1
    - groupingId: AnlsGrouping_06_Soc
      groupValue: GASTROINTESTINAL DISORDERS
    - groupingId: AnlsGrouping_07_Pt
      groupValue: NAUSEA
    rawValue: '3.4884'
    formattedValue: (  3.5)
  - operationId: Mth01_CatVar_Summ_ByGrp_1_n
    resultGroups:
    - groupingId: AnlsGrouping_01_Trt
      groupId: AnlsGrouping_01_Trt_1
    - groupingId: AnlsGrouping_06_Soc
      groupValue: GASTROINTESTINAL DISORDERS
    - groupingId: AnlsGrouping_07_Pt
      groupValue: RECTAL HAEMORRHAGE
    rawValue: '0'
    formattedValue: '0'
  - operationId: Mth01_CatVar_Summ_ByGrp_2_pct
    resultGroups:
    - groupingId: AnlsGrouping_01_Trt
      groupId: AnlsGrouping_01_Trt_1
    - groupingId: AnlsGrouping_06_Soc
      groupValue: GASTROINTESTINAL DISORDERS
    - groupingId: AnlsGrouping_07_Pt
      groupValue: RECTAL HAEMORRHAGE
    rawValue: '0'
    formattedValue: (  0.0)
  - operationId: Mth01_CatVar_Summ_ByGrp_1_n
    resultGroups:
    - groupingId: AnlsGrouping_01_Trt
      groupId: AnlsGrouping_01_Trt_1
    - groupingId: AnlsGrouping_06_Soc
      groupValue: GASTROINTESTINAL DISORDERS
    - groupingId: AnlsGrouping_07_Pt
      groupValue: SALIVARY HYPERSECRETION
    rawValue: '0'
    formattedValue: '0'
  - operationId: Mth01_CatVar_Summ_ByGrp_2_pct
    resultGroups:
    - groupingId: AnlsGrouping_01_Trt
      groupId: AnlsGrouping_01_Trt_1
    - groupingId: AnlsGrouping_06_Soc
      groupValue: GASTROINTESTINAL DISORDERS
    - groupingId: AnlsGrouping_07_Pt
      groupValue: SALIVARY HYPERSECRETION
    rawValue: '0'
    formattedValue: (  0.0)
  - operationId: Mth01_CatVar_Summ_ByGrp_1_n
    resultGroups:
    - groupingId: AnlsGrouping_01_Trt
      groupId: AnlsGrouping_01_Trt_1
    - groupingId: AnlsGrouping_06_Soc
      groupValue: GASTROINTESTINAL DISORDERS
    - groupingId: AnlsGrouping_07_Pt
      groupValue: STOMACH DISCOMFORT
    rawValue: '0'
    formattedValue: '0'
  - operationId: Mth01_CatVar_Summ_ByGrp_2_pct
    resultGroups:
    - groupingId: AnlsGrouping_01_Trt
      groupId: AnlsGrouping_01_Trt_1
    - groupingId: AnlsGrouping_06_Soc
      groupValue: GASTROINTESTINAL DISORDERS
    - groupingId: AnlsGrouping_07_Pt
      groupValue: STOMACH DISCOMFORT
    rawValue: '0'
    formattedValue: (  0.0)
  - operationId: Mth01_CatVar_Summ_ByGrp_1_n
    resultGroups:
    - groupingId: AnlsGrouping_01_Trt
      groupId: AnlsGrouping_01_Trt_1
    - groupingId: AnlsGrouping_06_Soc
      groupValue: GASTROINTESTINAL DISORDERS
    - groupingId: AnlsGrouping_07_Pt
      groupValue: VOMITING
    rawValue: '3'
    formattedValue: '3'
  - operationId: Mth01_CatVar_Summ_ByGrp_2_pct
    resultGroups:
    - groupingId: AnlsGrouping_01_Trt
      groupId: AnlsGrouping_01_Trt_1
    - groupingId: AnlsGrouping_06_Soc
      groupValue: GASTROINTESTINAL DISORDERS
    - groupingId: AnlsGrouping_07_Pt
      groupValue: VOMITING
    rawValue: '3.4884'
    formattedValue: (  3.5)
  - operationId: Mth01_CatVar_Summ_ByGrp_1_n
    resultGroups:
    - groupingId: AnlsGrouping_01_Trt
      groupId: AnlsGrouping_01_Trt_1
    - groupingId: AnlsGrouping_06_Soc
      groupValue: GENERAL DISORDERS AND ADMINISTRATION SITE CONDITIONS
    - groupingId: AnlsGrouping_07_Pt
      groupValue: APPLICATION SITE BLEEDING
    rawValue: '0'
    formattedValue: '0'
  - operationId: Mth01_CatVar_Summ_ByGrp_2_pct
    resultGroups:
    - groupingId: AnlsGrouping_01_Trt
      groupId: AnlsGrouping_01_Trt_1
    - groupingId: AnlsGrouping_06_Soc
      groupValue: GENERAL DISORDERS AND ADMINISTRATION SITE CONDITIONS
    - groupingId: AnlsGrouping_07_Pt
      groupValue: APPLICATION SITE BLEEDING
    rawValue: '0'
    formattedValue: (  0.0)
  - operationId: Mth01_CatVar_Summ_ByGrp_1_n
    resultGroups:
    - groupingId: AnlsGrouping_01_Trt
      groupId: AnlsGrouping_01_Trt_1
    - groupingId: AnlsGrouping_06_Soc
      groupValue: GENERAL DISORDERS AND ADMINISTRATION SITE CONDITIONS
    - groupingId: AnlsGrouping_07_Pt
      groupValue: APPLICATION SITE DERMATITIS
    rawValue: '5'
    formattedValue: '5'
  - operationId: Mth01_CatVar_Summ_ByGrp_2_pct
    resultGroups:
    - groupingId: AnlsGrouping_01_Trt
      groupId: AnlsGrouping_01_Trt_1
    - groupingId: AnlsGrouping_06_Soc
      groupValue: GENERAL DISORDERS AND ADMINISTRATION SITE CONDITIONS
    - groupingId: AnlsGrouping_07_Pt
      groupValue: APPLICATION SITE DERMATITIS
    rawValue: '5.814'
    formattedValue: (  5.8)
  - operationId: Mth01_CatVar_Summ_ByGrp_1_n
    resultGroups:
    - groupingId: AnlsGrouping_01_Trt
      groupId: AnlsGrouping_01_Trt_1
    - groupingId: AnlsGrouping_06_Soc
      groupValue: GENERAL DISORDERS AND ADMINISTRATION SITE CONDITIONS
    - groupingId: AnlsGrouping_07_Pt
      groupValue: APPLICATION SITE DESQUAMATION
    rawValue: '0'
    formattedValue: '0'
  - operationId: Mth01_CatVar_Summ_ByGrp_2_pct
    resultGroups:
    - groupingId: AnlsGrouping_01_Trt
      groupId: AnlsGrouping_01_Trt_1
    - groupingId: AnlsGrouping_06_Soc
      groupValue: GENERAL DISORDERS AND ADMINISTRATION SITE CONDITIONS
    - groupingId: AnlsGrouping_07_Pt
      groupValue: APPLICATION SITE DESQUAMATION
    rawValue: '0'
    formattedValue: (  0.0)
  - operationId: Mth01_CatVar_Summ_ByGrp_1_n
    resultGroups:
    - groupingId: AnlsGrouping_01_Trt
      groupId: AnlsGrouping_01_Trt_1
    - groupingId: AnlsGrouping_06_Soc
      groupValue: GENERAL DISORDERS AND ADMINISTRATION SITE CONDITIONS
    - groupingId: AnlsGrouping_07_Pt
      groupValue: APPLICATION SITE DISCHARGE
    rawValue: '0'
    formattedValue: '0'
  - operationId: Mth01_CatVar_Summ_ByGrp_2_pct
    resultGroups:
    - groupingId: AnlsGrouping_01_Trt
      groupId: AnlsGrouping_01_Trt_1
    - groupingId: AnlsGrouping_06_Soc
      groupValue: GENERAL DISORDERS AND ADMINISTRATION SITE CONDITIONS
    - groupingId: AnlsGrouping_07_Pt
      groupValue: APPLICATION SITE DISCHARGE
    rawValue: '0'
    formattedValue: (  0.0)
  - operationId: Mth01_CatVar_Summ_ByGrp_1_n
    resultGroups:
    - groupingId: AnlsGrouping_01_Trt
      groupId: AnlsGrouping_01_Trt_1
    - groupingId: AnlsGrouping_06_Soc
      groupValue: GENERAL DISORDERS AND ADMINISTRATION SITE CONDITIONS
    - groupingId: AnlsGrouping_07_Pt
      groupValue: APPLICATION SITE DISCOLOURATION
    rawValue: '0'
    formattedValue: '0'
  - operationId: Mth01_CatVar_Summ_ByGrp_2_pct
    resultGroups:
    - groupingId: AnlsGrouping_01_Trt
      groupId: AnlsGrouping_01_Trt_1
    - groupingId: AnlsGrouping_06_Soc
      groupValue: GENERAL DISORDERS AND ADMINISTRATION SITE CONDITIONS
    - groupingId: AnlsGrouping_07_Pt
      groupValue: APPLICATION SITE DISCOLOURATION
    rawValue: '0'
    formattedValue: (  0.0)
  - operationId: Mth01_CatVar_Summ_ByGrp_1_n
    resultGroups:
    - groupingId: AnlsGrouping_01_Trt
      groupId: AnlsGrouping_01_Trt_1
    - groupingId: AnlsGrouping_06_Soc
      groupValue: GENERAL DISORDERS AND ADMINISTRATION SITE CONDITIONS
    - groupingId: AnlsGrouping_07_Pt
      groupValue: APPLICATION SITE ERYTHEMA
    rawValue: '3'
    formattedValue: '3'
  - operationId: Mth01_CatVar_Summ_ByGrp_2_pct
    resultGroups:
    - groupingId: AnlsGrouping_01_Trt
      groupId: AnlsGrouping_01_Trt_1
    - groupingId: AnlsGrouping_06_Soc
      groupValue: GENERAL DISORDERS AND ADMINISTRATION SITE CONDITIONS
    - groupingId: AnlsGrouping_07_Pt
      groupValue: APPLICATION SITE ERYTHEMA
    rawValue: '3.4884'
    formattedValue: (  3.5)
  - operationId: Mth01_CatVar_Summ_ByGrp_1_n
    resultGroups:
    - groupingId: AnlsGrouping_01_Trt
      groupId: AnlsGrouping_01_Trt_1
    - groupingId: AnlsGrouping_06_Soc
      groupValue: GENERAL DISORDERS AND ADMINISTRATION SITE CONDITIONS
    - groupingId: AnlsGrouping_07_Pt
      groupValue: APPLICATION SITE INDURATION
    rawValue: '1'
    formattedValue: '1'
  - operationId: Mth01_CatVar_Summ_ByGrp_2_pct
    resultGroups:
    - groupingId: AnlsGrouping_01_Trt
      groupId: AnlsGrouping_01_Trt_1
    - groupingId: AnlsGrouping_06_Soc
      groupValue: GENERAL DISORDERS AND ADMINISTRATION SITE CONDITIONS
    - groupingId: AnlsGrouping_07_Pt
      groupValue: APPLICATION SITE INDURATION
    rawValue: '1.1628'
    formattedValue: (  1.2)
  - operationId: Mth01_CatVar_Summ_ByGrp_1_n
    resultGroups:
    - groupingId: AnlsGrouping_01_Trt
      groupId: AnlsGrouping_01_Trt_1
    - groupingId: AnlsGrouping_06_Soc
      groupValue: GENERAL DISORDERS AND ADMINISTRATION SITE CONDITIONS
    - groupingId: AnlsGrouping_07_Pt
      groupValue: APPLICATION SITE IRRITATION
    rawValue: '3'
    formattedValue: '3'
  - operationId: Mth01_CatVar_Summ_ByGrp_2_pct
    resultGroups:
    - groupingId: AnlsGrouping_01_Trt
      groupId: AnlsGrouping_01_Trt_1
    - groupingId: AnlsGrouping_06_Soc
      groupValue: GENERAL DISORDERS AND ADMINISTRATION SITE CONDITIONS
    - groupingId: AnlsGrouping_07_Pt
      groupValue: APPLICATION SITE IRRITATION
    rawValue: '3.4884'
    formattedValue: (  3.5)
  - operationId: Mth01_CatVar_Summ_ByGrp_1_n
    resultGroups:
    - groupingId: AnlsGrouping_01_Trt
      groupId: AnlsGrouping_01_Trt_1
    - groupingId: AnlsGrouping_06_Soc
      groupValue: GENERAL DISORDERS AND ADMINISTRATION SITE CONDITIONS
    - groupingId: AnlsGrouping_07_Pt
      groupValue: APPLICATION SITE PAIN
    rawValue: '0'
    formattedValue: '0'
  - operationId: Mth01_CatVar_Summ_ByGrp_2_pct
    resultGroups:
    - groupingId: AnlsGrouping_01_Trt
      groupId: AnlsGrouping_01_Trt_1
    - groupingId: AnlsGrouping_06_Soc
      groupValue: GENERAL DISORDERS AND ADMINISTRATION SITE CONDITIONS
    - groupingId: AnlsGrouping_07_Pt
      groupValue: APPLICATION SITE PAIN
    rawValue: '0'
    formattedValue: (  0.0)
  - operationId: Mth01_CatVar_Summ_ByGrp_1_n
    resultGroups:
    - groupingId: AnlsGrouping_01_Trt
      groupId: AnlsGrouping_01_Trt_1
    - groupingId: AnlsGrouping_06_Soc
      groupValue: GENERAL DISORDERS AND ADMINISTRATION SITE CONDITIONS
    - groupingId: AnlsGrouping_07_Pt
      groupValue: APPLICATION SITE PERSPIRATION
    rawValue: '0'
    formattedValue: '0'
  - operationId: Mth01_CatVar_Summ_ByGrp_2_pct
    resultGroups:
    - groupingId: AnlsGrouping_01_Trt
      groupId: AnlsGrouping_01_Trt_1
    - groupingId: AnlsGrouping_06_Soc
      groupValue: GENERAL DISORDERS AND ADMINISTRATION SITE CONDITIONS
    - groupingId: AnlsGrouping_07_Pt
      groupValue: APPLICATION SITE PERSPIRATION
    rawValue: '0'
    formattedValue: (  0.0)
  - operationId: Mth01_CatVar_Summ_ByGrp_1_n
    resultGroups:
    - groupingId: AnlsGrouping_01_Trt
      groupId: AnlsGrouping_01_Trt_1
    - groupingId: AnlsGrouping_06_Soc
      groupValue: GENERAL DISORDERS AND ADMINISTRATION SITE CONDITIONS
    - groupingId: AnlsGrouping_07_Pt
      groupValue: APPLICATION SITE PRURITUS
    rawValue: '6'
    formattedValue: '6'
  - operationId: Mth01_CatVar_Summ_ByGrp_2_pct
    resultGroups:
    - groupingId: AnlsGrouping_01_Trt
      groupId: AnlsGrouping_01_Trt_1
    - groupingId: AnlsGrouping_06_Soc
      groupValue: GENERAL DISORDERS AND ADMINISTRATION SITE CONDITIONS
    - groupingId: AnlsGrouping_07_Pt
      groupValue: APPLICATION SITE PRURITUS
    rawValue: '6.9767'
    formattedValue: (  7.0)
  - operationId: Mth01_CatVar_Summ_ByGrp_1_n
    resultGroups:
    - groupingId: AnlsGrouping_01_Trt
      groupId: AnlsGrouping_01_Trt_1
    - groupingId: AnlsGrouping_06_Soc
      groupValue: GENERAL DISORDERS AND ADMINISTRATION SITE CONDITIONS
    - groupingId: AnlsGrouping_07_Pt
      groupValue: APPLICATION SITE REACTION
    rawValue: '1'
    formattedValue: '1'
  - operationId: Mth01_CatVar_Summ_ByGrp_2_pct
    resultGroups:
    - groupingId: AnlsGrouping_01_Trt
      groupId: AnlsGrouping_01_Trt_1
    - groupingId: AnlsGrouping_06_Soc
      groupValue: GENERAL DISORDERS AND ADMINISTRATION SITE CONDITIONS
    - groupingId: AnlsGrouping_07_Pt
      groupValue: APPLICATION SITE REACTION
    rawValue: '1.1628'
    formattedValue: (  1.2)
  - operationId: Mth01_CatVar_Summ_ByGrp_1_n
    resultGroups:
    - groupingId: AnlsGrouping_01_Trt
      groupId: AnlsGrouping_01_Trt_1
    - groupingId: AnlsGrouping_06_Soc
      groupValue: GENERAL DISORDERS AND ADMINISTRATION SITE CONDITIONS
    - groupingId: AnlsGrouping_07_Pt
      groupValue: APPLICATION SITE SWELLING
    rawValue: '0'
    formattedValue: '0'
  - operationId: Mth01_CatVar_Summ_ByGrp_2_pct
    resultGroups:
    - groupingId: AnlsGrouping_01_Trt
      groupId: AnlsGrouping_01_Trt_1
    - groupingId: AnlsGrouping_06_Soc
      groupValue: GENERAL DISORDERS AND ADMINISTRATION SITE CONDITIONS
    - groupingId: AnlsGrouping_07_Pt
      groupValue: APPLICATION SITE SWELLING
    rawValue: '0'
    formattedValue: (  0.0)
  - operationId: Mth01_CatVar_Summ_ByGrp_1_n
    resultGroups:
    - groupingId: AnlsGrouping_01_Trt
      groupId: AnlsGrouping_01_Trt_1
    - groupingId: AnlsGrouping_06_Soc
      groupValue: GENERAL DISORDERS AND ADMINISTRATION SITE CONDITIONS
    - groupingId: AnlsGrouping_07_Pt
      groupValue: APPLICATION SITE URTICARIA
    rawValue: '0'
    formattedValue: '0'
  - operationId: Mth01_CatVar_Summ_ByGrp_2_pct
    resultGroups:
    - groupingId: AnlsGrouping_01_Trt
      groupId: AnlsGrouping_01_Trt_1
    - groupingId: AnlsGrouping_06_Soc
      groupValue: GENERAL DISORDERS AND ADMINISTRATION SITE CONDITIONS
    - groupingId: AnlsGrouping_07_Pt
      groupValue: APPLICATION SITE URTICARIA
    rawValue: '0'
    formattedValue: (  0.0)
  - operationId: Mth01_CatVar_Summ_ByGrp_1_n
    resultGroups:
    - groupingId: AnlsGrouping_01_Trt
      groupId: AnlsGrouping_01_Trt_1
    - groupingId: AnlsGrouping_06_Soc
      groupValue: GENERAL DISORDERS AND ADMINISTRATION SITE CONDITIONS
    - groupingId: AnlsGrouping_07_Pt
      groupValue: APPLICATION SITE VESICLES
    rawValue: '1'
    formattedValue: '1'
  - operationId: Mth01_CatVar_Summ_ByGrp_2_pct
    resultGroups:
    - groupingId: AnlsGrouping_01_Trt
      groupId: AnlsGrouping_01_Trt_1
    - groupingId: AnlsGrouping_06_Soc
      groupValue: GENERAL DISORDERS AND ADMINISTRATION SITE CONDITIONS
    - groupingId: AnlsGrouping_07_Pt
      groupValue: APPLICATION SITE VESICLES
    rawValue: '1.1628'
    formattedValue: (  1.2)
  - operationId: Mth01_CatVar_Summ_ByGrp_1_n
    resultGroups:
    - groupingId: AnlsGrouping_01_Trt
      groupId: AnlsGrouping_01_Trt_1
    - groupingId: AnlsGrouping_06_Soc
      groupValue: GENERAL DISORDERS AND ADMINISTRATION SITE CONDITIONS
    - groupingId: AnlsGrouping_07_Pt
      groupValue: APPLICATION SITE WARMTH
    rawValue: '0'
    formattedValue: '0'
  - operationId: Mth01_CatVar_Summ_ByGrp_2_pct
    resultGroups:
    - groupingId: AnlsGrouping_01_Trt
      groupId: AnlsGrouping_01_Trt_1
    - groupingId: AnlsGrouping_06_Soc
      groupValue: GENERAL DISORDERS AND ADMINISTRATION SITE CONDITIONS
    - groupingId: AnlsGrouping_07_Pt
      groupValue: APPLICATION SITE WARMTH
    rawValue: '0'
    formattedValue: (  0.0)
  - operationId: Mth01_CatVar_Summ_ByGrp_1_n
    resultGroups:
    - groupingId: AnlsGrouping_01_Trt
      groupId: AnlsGrouping_01_Trt_1
    - groupingId: AnlsGrouping_06_Soc
      groupValue: GENERAL DISORDERS AND ADMINISTRATION SITE CONDITIONS
    - groupingId: AnlsGrouping_07_Pt
      groupValue: ASTHENIA
    rawValue: '1'
    formattedValue: '1'
  - operationId: Mth01_CatVar_Summ_ByGrp_2_pct
    resultGroups:
    - groupingId: AnlsGrouping_01_Trt
      groupId: AnlsGrouping_01_Trt_1
    - groupingId: AnlsGrouping_06_Soc
      groupValue: GENERAL DISORDERS AND ADMINISTRATION SITE CONDITIONS
    - groupingId: AnlsGrouping_07_Pt
      groupValue: ASTHENIA
    rawValue: '1.1628'
    formattedValue: (  1.2)
  - operationId: Mth01_CatVar_Summ_ByGrp_1_n
    resultGroups:
    - groupingId: AnlsGrouping_01_Trt
      groupId: AnlsGrouping_01_Trt_1
    - groupingId: AnlsGrouping_06_Soc
      groupValue: GENERAL DISORDERS AND ADMINISTRATION SITE CONDITIONS
    - groupingId: AnlsGrouping_07_Pt
      groupValue: CHEST DISCOMFORT
    rawValue: '0'
    formattedValue: '0'
  - operationId: Mth01_CatVar_Summ_ByGrp_2_pct
    resultGroups:
    - groupingId: AnlsGrouping_01_Trt
      groupId: AnlsGrouping_01_Trt_1
    - groupingId: AnlsGrouping_06_Soc
      groupValue: GENERAL DISORDERS AND ADMINISTRATION SITE CONDITIONS
    - groupingId: AnlsGrouping_07_Pt
      groupValue: CHEST DISCOMFORT
    rawValue: '0'
    formattedValue: (  0.0)
  - operationId: Mth01_CatVar_Summ_ByGrp_1_n
    resultGroups:
    - groupingId: AnlsGrouping_01_Trt
      groupId: AnlsGrouping_01_Trt_1
    - groupingId: AnlsGrouping_06_Soc
      groupValue: GENERAL DISORDERS AND ADMINISTRATION SITE CONDITIONS
    - groupingId: AnlsGrouping_07_Pt
      groupValue: CHEST PAIN
    rawValue: '0'
    formattedValue: '0'
  - operationId: Mth01_CatVar_Summ_ByGrp_2_pct
    resultGroups:
    - groupingId: AnlsGrouping_01_Trt
      groupId: AnlsGrouping_01_Trt_1
    - groupingId: AnlsGrouping_06_Soc
      groupValue: GENERAL DISORDERS AND ADMINISTRATION SITE CONDITIONS
    - groupingId: AnlsGrouping_07_Pt
      groupValue: CHEST PAIN
    rawValue: '0'
    formattedValue: (  0.0)
  - operationId: Mth01_CatVar_Summ_ByGrp_1_n
    resultGroups:
    - groupingId: AnlsGrouping_01_Trt
      groupId: AnlsGrouping_01_Trt_1
    - groupingId: AnlsGrouping_06_Soc
      groupValue: GENERAL DISORDERS AND ADMINISTRATION SITE CONDITIONS
    - groupingId: AnlsGrouping_07_Pt
      groupValue: CHILLS
    rawValue: '1'
    formattedValue: '1'
  - operationId: Mth01_CatVar_Summ_ByGrp_2_pct
    resultGroups:
    - groupingId: AnlsGrouping_01_Trt
      groupId: AnlsGrouping_01_Trt_1
    - groupingId: AnlsGrouping_06_Soc
      groupValue: GENERAL DISORDERS AND ADMINISTRATION SITE CONDITIONS
    - groupingId: AnlsGrouping_07_Pt
      groupValue: CHILLS
    rawValue: '1.1628'
    formattedValue: (  1.2)
  - operationId: Mth01_CatVar_Summ_ByGrp_1_n
    resultGroups:
    - groupingId: AnlsGrouping_01_Trt
      groupId: AnlsGrouping_01_Trt_1
    - groupingId: AnlsGrouping_06_Soc
      groupValue: GENERAL DISORDERS AND ADMINISTRATION SITE CONDITIONS
    - groupingId: AnlsGrouping_07_Pt
      groupValue: FATIGUE
    rawValue: '1'
    formattedValue: '1'
  - operationId: Mth01_CatVar_Summ_ByGrp_2_pct
    resultGroups:
    - groupingId: AnlsGrouping_01_Trt
      groupId: AnlsGrouping_01_Trt_1
    - groupingId: AnlsGrouping_06_Soc
      groupValue: GENERAL DISORDERS AND ADMINISTRATION SITE CONDITIONS
    - groupingId: AnlsGrouping_07_Pt
      groupValue: FATIGUE
    rawValue: '1.1628'
    formattedValue: (  1.2)
  - operationId: Mth01_CatVar_Summ_ByGrp_1_n
    resultGroups:
    - groupingId: AnlsGrouping_01_Trt
      groupId: AnlsGrouping_01_Trt_1
    - groupingId: AnlsGrouping_06_Soc
      groupValue: GENERAL DISORDERS AND ADMINISTRATION SITE CONDITIONS
    - groupingId: AnlsGrouping_07_Pt
      groupValue: FEELING ABNORMAL
    rawValue: '0'
    formattedValue: '0'
  - operationId: Mth01_CatVar_Summ_ByGrp_2_pct
    resultGroups:
    - groupingId: AnlsGrouping_01_Trt
      groupId: AnlsGrouping_01_Trt_1
    - groupingId: AnlsGrouping_06_Soc
      groupValue: GENERAL DISORDERS AND ADMINISTRATION SITE CONDITIONS
    - groupingId: AnlsGrouping_07_Pt
      groupValue: FEELING ABNORMAL
    rawValue: '0'
    formattedValue: (  0.0)
  - operationId: Mth01_CatVar_Summ_ByGrp_1_n
    resultGroups:
    - groupingId: AnlsGrouping_01_Trt
      groupId: AnlsGrouping_01_Trt_1
    - groupingId: AnlsGrouping_06_Soc
      groupValue: GENERAL DISORDERS AND ADMINISTRATION SITE CONDITIONS
    - groupingId: AnlsGrouping_07_Pt
      groupValue: FEELING COLD
    rawValue: '0'
    formattedValue: '0'
  - operationId: Mth01_CatVar_Summ_ByGrp_2_pct
    resultGroups:
    - groupingId: AnlsGrouping_01_Trt
      groupId: AnlsGrouping_01_Trt_1
    - groupingId: AnlsGrouping_06_Soc
      groupValue: GENERAL DISORDERS AND ADMINISTRATION SITE CONDITIONS
    - groupingId: AnlsGrouping_07_Pt
      groupValue: FEELING COLD
    rawValue: '0'
    formattedValue: (  0.0)
  - operationId: Mth01_CatVar_Summ_ByGrp_1_n
    resultGroups:
    - groupingId: AnlsGrouping_01_Trt
      groupId: AnlsGrouping_01_Trt_1
    - groupingId: AnlsGrouping_06_Soc
      groupValue: GENERAL DISORDERS AND ADMINISTRATION SITE CONDITIONS
    - groupingId: AnlsGrouping_07_Pt
      groupValue: INFLAMMATION
    rawValue: '0'
    formattedValue: '0'
  - operationId: Mth01_CatVar_Summ_ByGrp_2_pct
    resultGroups:
    - groupingId: AnlsGrouping_01_Trt
      groupId: AnlsGrouping_01_Trt_1
    - groupingId: AnlsGrouping_06_Soc
      groupValue: GENERAL DISORDERS AND ADMINISTRATION SITE CONDITIONS
    - groupingId: AnlsGrouping_07_Pt
      groupValue: INFLAMMATION
    rawValue: '0'
    formattedValue: (  0.0)
  - operationId: Mth01_CatVar_Summ_ByGrp_1_n
    resultGroups:
    - groupingId: AnlsGrouping_01_Trt
      groupId: AnlsGrouping_01_Trt_1
    - groupingId: AnlsGrouping_06_Soc
      groupValue: GENERAL DISORDERS AND ADMINISTRATION SITE CONDITIONS
    - groupingId: AnlsGrouping_07_Pt
      groupValue: MALAISE
    rawValue: '0'
    formattedValue: '0'
  - operationId: Mth01_CatVar_Summ_ByGrp_2_pct
    resultGroups:
    - groupingId: AnlsGrouping_01_Trt
      groupId: AnlsGrouping_01_Trt_1
    - groupingId: AnlsGrouping_06_Soc
      groupValue: GENERAL DISORDERS AND ADMINISTRATION SITE CONDITIONS
    - groupingId: AnlsGrouping_07_Pt
      groupValue: MALAISE
    rawValue: '0'
    formattedValue: (  0.0)
  - operationId: Mth01_CatVar_Summ_ByGrp_1_n
    resultGroups:
    - groupingId: AnlsGrouping_01_Trt
      groupId: AnlsGrouping_01_Trt_1
    - groupingId: AnlsGrouping_06_Soc
      groupValue: GENERAL DISORDERS AND ADMINISTRATION SITE CONDITIONS
    - groupingId: AnlsGrouping_07_Pt
      groupValue: OEDEMA
    rawValue: '0'
    formattedValue: '0'
  - operationId: Mth01_CatVar_Summ_ByGrp_2_pct
    resultGroups:
    - groupingId: AnlsGrouping_01_Trt
      groupId: AnlsGrouping_01_Trt_1
    - groupingId: AnlsGrouping_06_Soc
      groupValue: GENERAL DISORDERS AND ADMINISTRATION SITE CONDITIONS
    - groupingId: AnlsGrouping_07_Pt
      groupValue: OEDEMA
    rawValue: '0'
    formattedValue: (  0.0)
  - operationId: Mth01_CatVar_Summ_ByGrp_1_n
    resultGroups:
    - groupingId: AnlsGrouping_01_Trt
      groupId: AnlsGrouping_01_Trt_1
    - groupingId: AnlsGrouping_06_Soc
      groupValue: GENERAL DISORDERS AND ADMINISTRATION SITE CONDITIONS
    - groupingId: AnlsGrouping_07_Pt
      groupValue: OEDEMA PERIPHERAL
    rawValue: '2'
    formattedValue: '2'
  - operationId: Mth01_CatVar_Summ_ByGrp_2_pct
    resultGroups:
    - groupingId: AnlsGrouping_01_Trt
      groupId: AnlsGrouping_01_Trt_1
    - groupingId: AnlsGrouping_06_Soc
      groupValue: GENERAL DISORDERS AND ADMINISTRATION SITE CONDITIONS
    - groupingId: AnlsGrouping_07_Pt
      groupValue: OEDEMA PERIPHERAL
    rawValue: '2.3256'
    formattedValue: (  2.3)
  - operationId: Mth01_CatVar_Summ_ByGrp_1_n
    resultGroups:
    - groupingId: AnlsGrouping_01_Trt
      groupId: AnlsGrouping_01_Trt_1
    - groupingId: AnlsGrouping_06_Soc
      groupValue: GENERAL DISORDERS AND ADMINISTRATION SITE CONDITIONS
    - groupingId: AnlsGrouping_07_Pt
      groupValue: PAIN
    rawValue: '0'
    formattedValue: '0'
  - operationId: Mth01_CatVar_Summ_ByGrp_2_pct
    resultGroups:
    - groupingId: AnlsGrouping_01_Trt
      groupId: AnlsGrouping_01_Trt_1
    - groupingId: AnlsGrouping_06_Soc
      groupValue: GENERAL DISORDERS AND ADMINISTRATION SITE CONDITIONS
    - groupingId: AnlsGrouping_07_Pt
      groupValue: PAIN
    rawValue: '0'
    formattedValue: (  0.0)
  - operationId: Mth01_CatVar_Summ_ByGrp_1_n
    resultGroups:
    - groupingId: AnlsGrouping_01_Trt
      groupId: AnlsGrouping_01_Trt_1
    - groupingId: AnlsGrouping_06_Soc
      groupValue: GENERAL DISORDERS AND ADMINISTRATION SITE CONDITIONS
    - groupingId: AnlsGrouping_07_Pt
      groupValue: PYREXIA
    rawValue: '2'
    formattedValue: '2'
  - operationId: Mth01_CatVar_Summ_ByGrp_2_pct
    resultGroups:
    - groupingId: AnlsGrouping_01_Trt
      groupId: AnlsGrouping_01_Trt_1
    - groupingId: AnlsGrouping_06_Soc
      groupValue: GENERAL DISORDERS AND ADMINISTRATION SITE CONDITIONS
    - groupingId: AnlsGrouping_07_Pt
      groupValue: PYREXIA
    rawValue: '2.3256'
    formattedValue: (  2.3)
  - operationId: Mth01_CatVar_Summ_ByGrp_1_n
    resultGroups:
    - groupingId: AnlsGrouping_01_Trt
      groupId: AnlsGrouping_01_Trt_1
    - groupingId: AnlsGrouping_06_Soc
      groupValue: GENERAL DISORDERS AND ADMINISTRATION SITE CONDITIONS
    - groupingId: AnlsGrouping_07_Pt
      groupValue: SECRETION DISCHARGE
    rawValue: '0'
    formattedValue: '0'
  - operationId: Mth01_CatVar_Summ_ByGrp_2_pct
    resultGroups:
    - groupingId: AnlsGrouping_01_Trt
      groupId: AnlsGrouping_01_Trt_1
    - groupingId: AnlsGrouping_06_Soc
      groupValue: GENERAL DISORDERS AND ADMINISTRATION SITE CONDITIONS
    - groupingId: AnlsGrouping_07_Pt
      groupValue: SECRETION DISCHARGE
    rawValue: '0'
    formattedValue: (  0.0)
  - operationId: Mth01_CatVar_Summ_ByGrp_1_n
    resultGroups:
    - groupingId: AnlsGrouping_01_Trt
      groupId: AnlsGrouping_01_Trt_1
    - groupingId: AnlsGrouping_06_Soc
      groupValue: GENERAL DISORDERS AND ADMINISTRATION SITE CONDITIONS
    - groupingId: AnlsGrouping_07_Pt
      groupValue: SUDDEN DEATH
    rawValue: '0'
    formattedValue: '0'
  - operationId: Mth01_CatVar_Summ_ByGrp_2_pct
    resultGroups:
    - groupingId: AnlsGrouping_01_Trt
      groupId: AnlsGrouping_01_Trt_1
    - groupingId: AnlsGrouping_06_Soc
      groupValue: GENERAL DISORDERS AND ADMINISTRATION SITE CONDITIONS
    - groupingId: AnlsGrouping_07_Pt
      groupValue: SUDDEN DEATH
    rawValue: '0'
    formattedValue: (  0.0)
  - operationId: Mth01_CatVar_Summ_ByGrp_1_n
    resultGroups:
    - groupingId: AnlsGrouping_01_Trt
      groupId: AnlsGrouping_01_Trt_1
    - groupingId: AnlsGrouping_06_Soc
      groupValue: GENERAL DISORDERS AND ADMINISTRATION SITE CONDITIONS
    - groupingId: AnlsGrouping_07_Pt
      groupValue: SWELLING
    rawValue: '0'
    formattedValue: '0'
  - operationId: Mth01_CatVar_Summ_ByGrp_2_pct
    resultGroups:
    - groupingId: AnlsGrouping_01_Trt
      groupId: AnlsGrouping_01_Trt_1
    - groupingId: AnlsGrouping_06_Soc
      groupValue: GENERAL DISORDERS AND ADMINISTRATION SITE CONDITIONS
    - groupingId: AnlsGrouping_07_Pt
      groupValue: SWELLING
    rawValue: '0'
    formattedValue: (  0.0)
  - operationId: Mth01_CatVar_Summ_ByGrp_1_n
    resultGroups:
    - groupingId: AnlsGrouping_01_Trt
      groupId: AnlsGrouping_01_Trt_1
    - groupingId: AnlsGrouping_06_Soc
      groupValue: GENERAL DISORDERS AND ADMINISTRATION SITE CONDITIONS
    - groupingId: AnlsGrouping_07_Pt
      groupValue: ULCER
    rawValue: '0'
    formattedValue: '0'
  - operationId: Mth01_CatVar_Summ_ByGrp_2_pct
    resultGroups:
    - groupingId: AnlsGrouping_01_Trt
      groupId: AnlsGrouping_01_Trt_1
    - groupingId: AnlsGrouping_06_Soc
      groupValue: GENERAL DISORDERS AND ADMINISTRATION SITE CONDITIONS
    - groupingId: AnlsGrouping_07_Pt
      groupValue: ULCER
    rawValue: '0'
    formattedValue: (  0.0)
  - operationId: Mth01_CatVar_Summ_ByGrp_1_n
    resultGroups:
    - groupingId: AnlsGrouping_01_Trt
      groupId: AnlsGrouping_01_Trt_1
    - groupingId: AnlsGrouping_06_Soc
      groupValue: HEPATOBILIARY DISORDERS
    - groupingId: AnlsGrouping_07_Pt
      groupValue: HYPERBILIRUBINAEMIA
    rawValue: '1'
    formattedValue: '1'
  - operationId: Mth01_CatVar_Summ_ByGrp_2_pct
    resultGroups:
    - groupingId: AnlsGrouping_01_Trt
      groupId: AnlsGrouping_01_Trt_1
    - groupingId: AnlsGrouping_06_Soc
      groupValue: HEPATOBILIARY DISORDERS
    - groupingId: AnlsGrouping_07_Pt
      groupValue: HYPERBILIRUBINAEMIA
    rawValue: '1.1628'
    formattedValue: (  1.2)
  - operationId: Mth01_CatVar_Summ_ByGrp_1_n
    resultGroups:
    - groupingId: AnlsGrouping_01_Trt
      groupId: AnlsGrouping_01_Trt_1
    - groupingId: AnlsGrouping_06_Soc
      groupValue: IMMUNE SYSTEM DISORDERS
    - groupingId: AnlsGrouping_07_Pt
      groupValue: HYPERSENSITIVITY
    rawValue: '0'
    formattedValue: '0'
  - operationId: Mth01_CatVar_Summ_ByGrp_2_pct
    resultGroups:
    - groupingId: AnlsGrouping_01_Trt
      groupId: AnlsGrouping_01_Trt_1
    - groupingId: AnlsGrouping_06_Soc
      groupValue: IMMUNE SYSTEM DISORDERS
    - groupingId: AnlsGrouping_07_Pt
      groupValue: HYPERSENSITIVITY
    rawValue: '0'
    formattedValue: (  0.0)
  - operationId: Mth01_CatVar_Summ_ByGrp_1_n
    resultGroups:
    - groupingId: AnlsGrouping_01_Trt
      groupId: AnlsGrouping_01_Trt_1
    - groupingId: AnlsGrouping_06_Soc
      groupValue: INFECTIONS AND INFESTATIONS
    - groupingId: AnlsGrouping_07_Pt
      groupValue: BRONCHITIS
    rawValue: '1'
    formattedValue: '1'
  - operationId: Mth01_CatVar_Summ_ByGrp_2_pct
    resultGroups:
    - groupingId: AnlsGrouping_01_Trt
      groupId: AnlsGrouping_01_Trt_1
    - groupingId: AnlsGrouping_06_Soc
      groupValue: INFECTIONS AND INFESTATIONS
    - groupingId: AnlsGrouping_07_Pt
      groupValue: BRONCHITIS
    rawValue: '1.1628'
    formattedValue: (  1.2)
  - operationId: Mth01_CatVar_Summ_ByGrp_1_n
    resultGroups:
    - groupingId: AnlsGrouping_01_Trt
      groupId: AnlsGrouping_01_Trt_1
    - groupingId: AnlsGrouping_06_Soc
      groupValue: INFECTIONS AND INFESTATIONS
    - groupingId: AnlsGrouping_07_Pt
      groupValue: CELLULITIS
    rawValue: '0'
    formattedValue: '0'
  - operationId: Mth01_CatVar_Summ_ByGrp_2_pct
    resultGroups:
    - groupingId: AnlsGrouping_01_Trt
      groupId: AnlsGrouping_01_Trt_1
    - groupingId: AnlsGrouping_06_Soc
      groupValue: INFECTIONS AND INFESTATIONS
    - groupingId: AnlsGrouping_07_Pt
      groupValue: CELLULITIS
    rawValue: '0'
    formattedValue: (  0.0)
  - operationId: Mth01_CatVar_Summ_ByGrp_1_n
    resultGroups:
    - groupingId: AnlsGrouping_01_Trt
      groupId: AnlsGrouping_01_Trt_1
    - groupingId: AnlsGrouping_06_Soc
      groupValue: INFECTIONS AND INFESTATIONS
    - groupingId: AnlsGrouping_07_Pt
      groupValue: CERVICITIS
    rawValue: '1'
    formattedValue: '1'
  - operationId: Mth01_CatVar_Summ_ByGrp_2_pct
    resultGroups:
    - groupingId: AnlsGrouping_01_Trt
      groupId: AnlsGrouping_01_Trt_1
    - groupingId: AnlsGrouping_06_Soc
      groupValue: INFECTIONS AND INFESTATIONS
    - groupingId: AnlsGrouping_07_Pt
      groupValue: CERVICITIS
    rawValue: '1.1628'
    formattedValue: (  1.2)
  - operationId: Mth01_CatVar_Summ_ByGrp_1_n
    resultGroups:
    - groupingId: AnlsGrouping_01_Trt
      groupId: AnlsGrouping_01_Trt_1
    - groupingId: AnlsGrouping_06_Soc
      groupValue: INFECTIONS AND INFESTATIONS
    - groupingId: AnlsGrouping_07_Pt
      groupValue: CYSTITIS
    rawValue: '1'
    formattedValue: '1'
  - operationId: Mth01_CatVar_Summ_ByGrp_2_pct
    resultGroups:
    - groupingId: AnlsGrouping_01_Trt
      groupId: AnlsGrouping_01_Trt_1
    - groupingId: AnlsGrouping_06_Soc
      groupValue: INFECTIONS AND INFESTATIONS
    - groupingId: AnlsGrouping_07_Pt
      groupValue: CYSTITIS
    rawValue: '1.1628'
    formattedValue: (  1.2)
  - operationId: Mth01_CatVar_Summ_ByGrp_1_n
    resultGroups:
    - groupingId: AnlsGrouping_01_Trt
      groupId: AnlsGrouping_01_Trt_1
    - groupingId: AnlsGrouping_06_Soc
      groupValue: INFECTIONS AND INFESTATIONS
    - groupingId: AnlsGrouping_07_Pt
      groupValue: EAR INFECTION
    rawValue: '2'
    formattedValue: '2'
  - operationId: Mth01_CatVar_Summ_ByGrp_2_pct
    resultGroups:
    - groupingId: AnlsGrouping_01_Trt
      groupId: AnlsGrouping_01_Trt_1
    - groupingId: AnlsGrouping_06_Soc
      groupValue: INFECTIONS AND INFESTATIONS
    - groupingId: AnlsGrouping_07_Pt
      groupValue: EAR INFECTION
    rawValue: '2.3256'
    formattedValue: (  2.3)
  - operationId: Mth01_CatVar_Summ_ByGrp_1_n
    resultGroups:
    - groupingId: AnlsGrouping_01_Trt
      groupId: AnlsGrouping_01_Trt_1
    - groupingId: AnlsGrouping_06_Soc
      groupValue: INFECTIONS AND INFESTATIONS
    - groupingId: AnlsGrouping_07_Pt
      groupValue: GASTROENTERITIS VIRAL
    rawValue: '1'
    formattedValue: '1'
  - operationId: Mth01_CatVar_Summ_ByGrp_2_pct
    resultGroups:
    - groupingId: AnlsGrouping_01_Trt
      groupId: AnlsGrouping_01_Trt_1
    - groupingId: AnlsGrouping_06_Soc
      groupValue: INFECTIONS AND INFESTATIONS
    - groupingId: AnlsGrouping_07_Pt
      groupValue: GASTROENTERITIS VIRAL
    rawValue: '1.1628'
    formattedValue: (  1.2)
  - operationId: Mth01_CatVar_Summ_ByGrp_1_n
    resultGroups:
    - groupingId: AnlsGrouping_01_Trt
      groupId: AnlsGrouping_01_Trt_1
    - groupingId: AnlsGrouping_06_Soc
      groupValue: INFECTIONS AND INFESTATIONS
    - groupingId: AnlsGrouping_07_Pt
      groupValue: HORDEOLUM
    rawValue: '0'
    formattedValue: '0'
  - operationId: Mth01_CatVar_Summ_ByGrp_2_pct
    resultGroups:
    - groupingId: AnlsGrouping_01_Trt
      groupId: AnlsGrouping_01_Trt_1
    - groupingId: AnlsGrouping_06_Soc
      groupValue: INFECTIONS AND INFESTATIONS
    - groupingId: AnlsGrouping_07_Pt
      groupValue: HORDEOLUM
    rawValue: '0'
    formattedValue: (  0.0)
  - operationId: Mth01_CatVar_Summ_ByGrp_1_n
    resultGroups:
    - groupingId: AnlsGrouping_01_Trt
      groupId: AnlsGrouping_01_Trt_1
    - groupingId: AnlsGrouping_06_Soc
      groupValue: INFECTIONS AND INFESTATIONS
    - groupingId: AnlsGrouping_07_Pt
      groupValue: INFLUENZA
    rawValue: '1'
    formattedValue: '1'
  - operationId: Mth01_CatVar_Summ_ByGrp_2_pct
    resultGroups:
    - groupingId: AnlsGrouping_01_Trt
      groupId: AnlsGrouping_01_Trt_1
    - groupingId: AnlsGrouping_06_Soc
      groupValue: INFECTIONS AND INFESTATIONS
    - groupingId: AnlsGrouping_07_Pt
      groupValue: INFLUENZA
    rawValue: '1.1628'
    formattedValue: (  1.2)
  - operationId: Mth01_CatVar_Summ_ByGrp_1_n
    resultGroups:
    - groupingId: AnlsGrouping_01_Trt
      groupId: AnlsGrouping_01_Trt_1
    - groupingId: AnlsGrouping_06_Soc
      groupValue: INFECTIONS AND INFESTATIONS
    - groupingId: AnlsGrouping_07_Pt
      groupValue: LOCALISED INFECTION
    rawValue: '1'
    formattedValue: '1'
  - operationId: Mth01_CatVar_Summ_ByGrp_2_pct
    resultGroups:
    - groupingId: AnlsGrouping_01_Trt
      groupId: AnlsGrouping_01_Trt_1
    - groupingId: AnlsGrouping_06_Soc
      groupValue: INFECTIONS AND INFESTATIONS
    - groupingId: AnlsGrouping_07_Pt
      groupValue: LOCALISED INFECTION
    rawValue: '1.1628'
    formattedValue: (  1.2)
