name: Sprint 10 Examples
listOfPlannedAnalyses:
  listItems:
  - name: Summary of Demographics
    level: 1
    order: 1
    sublist:
      listItems:
      - name: Summary of Subjects by Treatment
        level: 2
        order: 1
        analysisId: An01.05_SAF_ByTrt
      - name: Summary of Age by Treatment
        level: 2
        order: 2
        analysisId: An03.01_Age_ByTrt
      - name: Summary of Subjects by Treatment and Age Group
        level: 2
        order: 3
        analysisId: An03.02_AgeGrp_ByTrt
      - name: Summary of Subjects by Treatment and Sex
        level: 2
        order: 4
        analysisId: An03.03_Sex_ByTrt
      - name: Summary of Subjects by Treatment and Ethnicity
        level: 2
        order: 5
        analysisId: An03.04_Ethnic_ByTrt
      - name: Summary of Subjects by Treatment and Race
        level: 2
        order: 6
        analysisId: An03.05_Race_ByTrt
      - name: Summary of Height by Treatment
        level: 2
        order: 7
        analysisId: An03.06_Height_ByTrt
    outputId: Out14.1.1
  - name: Overall Summary of Treatment-Emergent Adverse Events
    level: 1
    order: 2
    sublist:
      listItems:
      - name: Summary of Subjects with At Least One TEAE, by Treatment
        level: 2
        order: 1
        analysisId: An07.01_TEAE_ByTrt
      - name: Summary of Subjects with At Least One Related TEAE, by Treatment
        level: 2
        order: 2
        analysisId: An07.02_RelTEAE_ByTrt
      - name: Summary of Subjects with At Least One Serious TEAE, by Treatment
        level: 2
        order: 3
        analysisId: An07.03_SerTEAE_ByTrt
      - name: Summary of Subjects with At Least One Related Serious TEAE, by Treatment
        level: 2
        order: 4
        analysisId: An07.04_RelSerTEAE_ByTrt
      - name: Summary of Subjects with At Least One TEAE Leading to Death, by Treatment
        level: 2
        order: 5
        analysisId: An07.05_TEAELd2Dth_ByTrt
      - name: Summary of Subjects with At Least One Related TEAE Leading to Death,
          by Treatment
        level: 2
        order: 6
        analysisId: An07.06_RelTEAELd2Dth_ByTrt
      - name: Summary of Subjects with At Least One TEAE Leading to Dose Modification,
          by Treatment
        level: 2
        order: 7
        analysisId: An07.07_TEAELd2DoseMod_ByTrt
      - name: Summary of Subjects with At Least One TEAE Leading to Treatment Discontinuation,
          by Treatment
        level: 2
        order: 8
        analysisId: An07.08_TEAELd2TrtDsc_ByTrt
    outputId: Out14.3.1.1
  - name: Summary of TEAE by System Organ Class and Preferred Term
    level: 1
    order: 3
    sublist:
      listItems:
      - name: 'Summary of Subjects by Treatment and System Organ Class '
        level: 2
        order: 1
        analysisId: An07.09_Soc_ByTrt
      - name: 'Summary of Subjects by Treatment, System Organ Class and Preferred
          Term '
        level: 2
        order: 2
        analysisId: An07.10_SocPt_ByTrt
    outputId: Out14.3.2.1
  - name: Summary of Observed and Change from Baseline by Scheduled Visits - Vital
      Signs
    level: 1
    order: 4
    sublist:
      listItems:
      - name: Summary of Observed Value by Treatment, Parameter and Visit
        level: 2
        order: 1
        analysisId: An08.01_Obs_ByTrt
      - name: Summary of Change from Baseline by Treatment, Parameter and Visit
        level: 2
        order: 2
        analysisId: An08.02_ChgBl_ByTrt
    outputId: Out14.3.3.1a
analysisSets:
- order: 1
  condition:
    dataset: ADSL
    variable: ITTFL
    comparator: EQ
    value:
    - Y
  id: AnalysisSet_01_ITT
  label: Intent-to-Treat Population
- order: 1
  condition:
    dataset: ADSL
    variable: SAFFL
    comparator: EQ
    value:
    - Y
  id: AnalysisSet_02_SAF
  label: Safety Population
analysisGroupings:
- id: AnlsGrouping_01_Sex
  dataDriven: false
  label: Gender
  groupingVariable: SEX
  groups:
  - order: 1
    condition:
      dataset: ADSL
      variable: SEX
      comparator: EQ
      value:
      - M
    id: AnlsGrouping_01_Sex_1
    label: Male
  - order: 2
    condition:
      dataset: ADSL
      variable: SEX
      comparator: EQ
      value:
      - F
    id: AnlsGrouping_01_Sex_2
    label: Female
- id: AnlsGrouping_02_Trt
  dataDriven: false
  label: Treatment
  groupingVariable: TRT01A
  groups:
  - order: 1
    condition:
      dataset: ADSL
      variable: TRT01A
      comparator: EQ
      value:
      - Placebo
    id: AnlsGrouping_02_Trt_1
    label: Placebo
  - order: 2
    condition:
      dataset: ADSL
      variable: TRT01A
      comparator: EQ
      value:
      - Xanomeline Low Dose
    id: AnlsGrouping_02_Trt_2
    label: Xanomeline Low Dose
  - order: 3
    condition:
      dataset: ADSL
      variable: TRT01A
      comparator: EQ
      value:
      - Xanomeline High Dose
    id: AnlsGrouping_02_Trt_3
    label: Xanomeline High Dose
- id: AnlsGrouping_03_AgeGp
  dataDriven: false
  label: Age Group
  groupingVariable: AGEGR1
  groups:
  - order: 1
    condition:
      dataset: ADSL
      variable: AGEGR1
      comparator: EQ
      value:
      - <65
    id: AnlsGrouping_03_AgeGp_1
    label: < 65 years
  - order: 2
    condition:
      dataset: ADSL
      variable: AGEGR1
      comparator: IN
      value:
      - 65-80
      - '>80'
    id: AnlsGrouping_03_AgeGp_2
    label: ≥ 65 years
- id: AnlsGrouping_04_Race
  dataDriven: false
  label: Primary Race
  groupingVariable: RACE
  groups:
  - order: 1
    condition:
      dataset: ADSL
      variable: RACE
      comparator: EQ
      value:
      - AMERICAN INDIAN OR ALASKA NATIVE
    id: AnlsGrouping_04_Race_1
    label: American Indian or Alaska Native
  - order: 2
    condition:
      dataset: ADSL
      variable: RACE
      comparator: EQ
      value:
      - ASIAN
    id: AnlsGrouping_04_Race_2
    label: Asian
  - order: 3
    condition:
      dataset: ADSL
      variable: RACE
      comparator: EQ
      value:
      - BLACK OR AFRICAN AMERICAN
    id: AnlsGrouping_04_Race_3
    label: Black or African American
  - order: 4
    condition:
      dataset: ADSL
      variable: RACE
      comparator: EQ
      value:
      - NATIVE HAWAIIAN OR OTHER PACIFIC ISLANDER
    id: AnlsGrouping_04_Race_4
    label: Native Hawaiian or Other Pacific Islander
  - order: 5
    condition:
      dataset: ADSL
      variable: RACE
      comparator: EQ
      value:
      - WHITE
    id: AnlsGrouping_04_Race_5
    label: White
  - order: 6
    condition:
      dataset: ADSL
      variable: RACE
      comparator: EQ
      value:
      - MULTIPLE
    id: AnlsGrouping_04_Race_6
    label: Multiple
  - order: 7
    condition:
      dataset: ADSL
      variable: RACE
      comparator: EQ
      value:
      - NOT REPORTED
    id: AnlsGrouping_04_Race_7
    label: Not Reported
  - order: 8
    condition:
      dataset: ADSL
      variable: RACE
      comparator: EQ
      value:
      - UNKNOWN
    id: AnlsGrouping_04_Race_8
    label: Unknown
  - order: 9
    condition:
      dataset: ADSL
      variable: RACE
      comparator: EQ
      value:
      - OTHER
    id: AnlsGrouping_04_Race_9
    label: Other
- id: AnlsGrouping_05_Ethnic
  dataDriven: false
  label: Ethnicity
  groupingVariable: ETHNIC
  groups:
  - order: 1
    condition:
      dataset: ADSL
      variable: ETHNIC
      comparator: EQ
      value:
      - HISPANIC OR LATINO
    id: AnlsGrouping_05_Ethnic_1
    label: Hispanic or Latino
  - order: 2
    condition:
      dataset: ADSL
      variable: ETHNIC
      comparator: EQ
      value:
      - NOT HISPANIC OR LATINO
    id: AnlsGrouping_05_Ethnic_2
    label: Not Hispanic or Latino
dataSubsets:
- level: 1
  order: 1
  condition:
    dataset: ADAE
    variable: TRTEMFL
    comparator: EQ
    value:
    - Y
  id: Dss01_TEAE
  label: Treatment-Emergent Adverse Events
- level: 1
  order: 1
  compoundExpression:
    logicalOperator: AND
    whereClauses:
    - level: 2
      order: 1
      condition:
        dataset: ADAE
        variable: TRTEMFL
        comparator: EQ
        value:
        - Y
    - level: 2
      order: 2
      condition:
        dataset: ADAE
        variable: AEREL
        comparator: IN
        value:
        - POSSIBLE
        - PROBABLE
  id: Dss02_Related_TEAE
  label: Related Treatment-Emergent Adverse Events
- level: 1
  order: 1
  compoundExpression:
    logicalOperator: AND
    whereClauses:
    - level: 2
      order: 1
      condition:
        dataset: ADAE
        variable: TRTEMFL
        comparator: EQ
        value:
        - Y
    - level: 2
      order: 2
      condition:
        dataset: ADAE
        variable: AESER
        comparator: EQ
        value:
        - Y
  id: Dss03_Serious_TEAE
  label: Serious Treatment-Emergent Adverse Events
- level: 1
  order: 1
  compoundExpression:
    logicalOperator: AND
    whereClauses:
    - level: 2
      order: 1
      condition:
        dataset: ADAE
        variable: TRTEMFL
        comparator: EQ
        value:
        - Y
    - level: 2
      order: 2
      condition:
        dataset: ADAE
        variable: AEREL
        comparator: IN
        value:
        - POSSIBLE
        - PROBABLE
    - level: 2
      order: 3
      condition:
        dataset: ADAE
        variable: AESER
        comparator: EQ
        value:
        - Y
  id: Dss04_RelSer_TEAE
  label: Related Serious Treatment-Emergent Adverse Events
- level: 1
  order: 1
  compoundExpression:
    logicalOperator: AND
    whereClauses:
    - level: 2
      order: 1
      condition:
        dataset: ADAE
        variable: TRTEMFL
        comparator: EQ
        value:
        - Y
    - level: 2
      order: 2
      condition:
        dataset: ADAE
        variable: AESDTH
        comparator: EQ
        value:
        - Y
  id: Dss05_TEAE_Ld2Dth
  label: Treatment-Emergent Adverse Events Leading to Death
- level: 1
  order: 1
  compoundExpression:
    logicalOperator: AND
    whereClauses:
    - level: 2
      order: 1
      condition:
        dataset: ADAE
        variable: TRTEMFL
        comparator: EQ
        value:
        - Y
    - level: 2
      order: 2
      condition:
        dataset: ADAE
        variable: AESDTH
        comparator: EQ
        value:
        - Y
    - level: 2
      order: 3
      compoundExpression:
        logicalOperator: OR
        whereClauses:
        - level: 3
          order: 1
          condition:
            dataset: ADAE
            variable: AEREL
            comparator: EQ
            value:
            - POSSIBLE
        - level: 3
          order: 2
          condition:
            dataset: ADAE
            variable: AEREL
            comparator: EQ
            value:
            - PROBABLE
  id: Dss06_Rel_TEAE_Ld2Dth
  label: Related Treatment-Emergent Adverse Events Leading to Death
- level: 1
  order: 1
  compoundExpression:
    logicalOperator: AND
    whereClauses:
    - level: 2
      order: 1
      condition:
        dataset: ADAE
        variable: TRTEMFL
        comparator: EQ
        value:
        - Y
    - level: 2
      order: 2
      condition:
        dataset: ADAE
        variable: AEACN
        comparator: IN
        value:
        - DOSE REDUCED
        - DRUG INTERRUPTED
  id: Dss07_TEAE_Ld2DoseMod
  label: Treatment-Emergent Adverse Events Leading to Dose Modification
- level: 1
  order: 1
  compoundExpression:
    logicalOperator: AND
    whereClauses:
    - level: 2
      order: 1
      condition:
        dataset: ADAE
        variable: TRTEMFL
        comparator: EQ
        value:
        - Y
    - level: 2
      order: 2
      condition:
        dataset: ADAE
        variable: AEACN
        comparator: EQ
        value:
        - DRUG WITHDRAWN
  id: Dss08_AE_Ld2TrtDsc
  label: Treatment-Emergent Adverse Events Leading to Treatment Discontinuation
- level: 1
  order: 1
  condition:
    dataset: ADVS
    variable: ANL01FL
    comparator: EQ
    value:
    - Y
  id: Dss09_VS_AnRec
  label: Vital Signs Analysis Records
- level: 1
  order: 1
  compoundExpression:
    logicalOperator: AND
    whereClauses:
    - level: 2
      order: 1
      condition:
        dataset: ADVS
        variable: ANL01FL
        comparator: EQ
        value:
        - Y
    - level: 2
      order: 2
      condition:
        dataset: ADVS
        variable: AVISIT
        comparator: NE
        value:
        - Baseline
  id: Dss10_VS_NonBl_AnRec
  label: Vital Signs Non-baseline Analysis Records
analyses:
- name: Summary of Subjects by Treatment
  id: An01.05_SAF_ByTrt
  methodId: Mth01_CatVar_ByGrp
  version: 1
  analysisSetId: AnalysisSet_02_SAF
  orderedGroupings:
  - order: 1
    groupingId: AnlsGrouping_02_Trt
  dataset: ADSL
  variable: USUBJID
  results:
  - operationId: Mth01_CatVar_ByGrp_1_n
    resultGroups:
    - groupingId: AnlsGrouping_02_Trt
      groupId: AnlsGrouping_02_Trt_1
    rawValue: '86'
    formattedValue: (N=86)
  - operationId: Mth01_CatVar_ByGrp_1_n
    resultGroups:
    - groupingId: AnlsGrouping_02_Trt
      groupId: AnlsGrouping_02_Trt_2
    rawValue: '84'
    formattedValue: (N=84)
  - operationId: Mth01_CatVar_ByGrp_1_n
    resultGroups:
    - groupingId: AnlsGrouping_02_Trt
      groupId: AnlsGrouping_02_Trt_3
    rawValue: '84'
    formattedValue: (N=84)
- name: Summary of Age by Treatment
  id: An03.01_Age_ByTrt
  methodId: Mth02_ContVar_ByGrp
  version: 1
  analysisSetId: AnalysisSet_02_SAF
  orderedGroupings:
  - order: 1
    groupingId: AnlsGrouping_02_Trt
  dataset: ADSL
  variable: AGE
  results:
  - operationId: Mth02_ContVar_ByGrp_1_n
    resultGroups:
    - groupingId: AnlsGrouping_02_Trt
      groupId: AnlsGrouping_02_Trt_1
    rawValue: '86'
    formattedValue: '86'
  - operationId: Mth02_ContVar_ByGrp_1_n
    resultGroups:
    - groupingId: AnlsGrouping_02_Trt
      groupId: AnlsGrouping_02_Trt_2
    rawValue: '84'
    formattedValue: '84'
  - operationId: Mth02_ContVar_ByGrp_1_n
    resultGroups:
    - groupingId: AnlsGrouping_02_Trt
      groupId: AnlsGrouping_02_Trt_3
    rawValue: '84'
    formattedValue: '84'
  - operationId: Mth02_ContVar_ByGrp_2_Mean
    resultGroups:
    - groupingId: AnlsGrouping_02_Trt
      groupId: AnlsGrouping_02_Trt_1
    rawValue: '75.2093023'
    formattedValue: '75.2'
  - operationId: Mth02_ContVar_ByGrp_2_Mean
    resultGroups:
    - groupingId: AnlsGrouping_02_Trt
      groupId: AnlsGrouping_02_Trt_2
    rawValue: '75.6666667'
    formattedValue: '75.7'
  - operationId: Mth02_ContVar_ByGrp_2_Mean
    resultGroups:
    - groupingId: AnlsGrouping_02_Trt
      groupId: AnlsGrouping_02_Trt_3
    rawValue: '74.3809524'
    formattedValue: '74.4'
  - operationId: Mth02_ContVar_ByGrp_3_SD
    resultGroups:
    - groupingId: AnlsGrouping_02_Trt
      groupId: AnlsGrouping_02_Trt_1
    rawValue: '8.5901671'
    formattedValue: ( 8.59)
  - operationId: Mth02_ContVar_ByGrp_3_SD
    resultGroups:
    - groupingId: AnlsGrouping_02_Trt
      groupId: AnlsGrouping_02_Trt_2
    rawValue: '8.2860506'
    formattedValue: ( 8.29)
  - operationId: Mth02_ContVar_ByGrp_3_SD
    resultGroups:
    - groupingId: AnlsGrouping_02_Trt
      groupId: AnlsGrouping_02_Trt_3
    rawValue: '7.8860938'
    formattedValue: ( 7.89)
  - operationId: Mth02_ContVar_ByGrp_4_Median
    resultGroups:
    - groupingId: AnlsGrouping_02_Trt
      groupId: AnlsGrouping_02_Trt_1
    rawValue: '76'
    formattedValue: '76.0'
  - operationId: Mth02_ContVar_ByGrp_4_Median
    resultGroups:
    - groupingId: AnlsGrouping_02_Trt
      groupId: AnlsGrouping_02_Trt_2
    rawValue: '77.5'
    formattedValue: '77.5'
  - operationId: Mth02_ContVar_ByGrp_4_Median
    resultGroups:
    - groupingId: AnlsGrouping_02_Trt
      groupId: AnlsGrouping_02_Trt_3
    rawValue: '76'
    formattedValue: '76.0'
  - operationId: Mth02_ContVar_ByGrp_5_Q1
    resultGroups:
    - groupingId: AnlsGrouping_02_Trt
      groupId: AnlsGrouping_02_Trt_1
    rawValue: '69'
    formattedValue: '69.0'
  - operationId: Mth02_ContVar_ByGrp_5_Q1
    resultGroups:
    - groupingId: AnlsGrouping_02_Trt
      groupId: AnlsGrouping_02_Trt_2
    rawValue: '71'
    formattedValue: '71.0'
  - operationId: Mth02_ContVar_ByGrp_5_Q1
    resultGroups:
    - groupingId: AnlsGrouping_02_Trt
      groupId: AnlsGrouping_02_Trt_3
    rawValue: '70'
    formattedValue: '70.0'
  - operationId: Mth02_ContVar_ByGrp_6_Q3
    resultGroups:
    - groupingId: AnlsGrouping_02_Trt
      groupId: AnlsGrouping_02_Trt_1
    rawValue: '82'
    formattedValue: '82.0'
  - operationId: Mth02_ContVar_ByGrp_6_Q3
    resultGroups:
    - groupingId: AnlsGrouping_02_Trt
      groupId: AnlsGrouping_02_Trt_2
    rawValue: '82'
    formattedValue: '82.0'
  - operationId: Mth02_ContVar_ByGrp_6_Q3
    resultGroups:
    - groupingId: AnlsGrouping_02_Trt
      groupId: AnlsGrouping_02_Trt_3
    rawValue: '80'
    formattedValue: '80.0'
  - operationId: Mth02_ContVar_ByGrp_7_Min
    resultGroups:
    - groupingId: AnlsGrouping_02_Trt
      groupId: AnlsGrouping_02_Trt_1
    rawValue: '52'
    formattedValue: '52'
  - operationId: Mth02_ContVar_ByGrp_7_Min
    resultGroups:
    - groupingId: AnlsGrouping_02_Trt
      groupId: AnlsGrouping_02_Trt_2
    rawValue: '51'
    formattedValue: '51'
  - operationId: Mth02_ContVar_ByGrp_7_Min
    resultGroups:
    - groupingId: AnlsGrouping_02_Trt
      groupId: AnlsGrouping_02_Trt_3
    rawValue: '56'
    formattedValue: '56'
  - operationId: Mth02_ContVar_ByGrp_8_Max
    resultGroups:
    - groupingId: AnlsGrouping_02_Trt
      groupId: AnlsGrouping_02_Trt_1
    rawValue: '89'
    formattedValue: '89'
  - operationId: Mth02_ContVar_ByGrp_8_Max
    resultGroups:
    - groupingId: AnlsGrouping_02_Trt
      groupId: AnlsGrouping_02_Trt_2
    rawValue: '88'
    formattedValue: '88'
  - operationId: Mth02_ContVar_ByGrp_8_Max
    resultGroups:
    - groupingId: AnlsGrouping_02_Trt
      groupId: AnlsGrouping_02_Trt_3
    rawValue: '88'
    formattedValue: '88'
- name: Summary of Subjects by Treatment and Age Group
  id: An03.02_AgeGrp_ByTrt
  methodId: Mth01_CatVar_ByGrp
  version: 1
  analysisSetId: AnalysisSet_02_SAF
  orderedGroupings:
  - order: 1
    groupingId: AnlsGrouping_02_Trt
  - order: 2
    groupingId: AnlsGrouping_03_AgeGp
  dataset: ADSL
  variable: USUBJID
  referencedAnalysisOperations:
  - analysisId: An03.02_AgeGrp_ByTrt
    referencedOperationId: Mth01_CatVar_ByGrp_2_pct_NUM
  - analysisId: An01.05_SAF_ByTrt
    referencedOperationId: Mth01_CatVar_ByGrp_2_pct_DEN
  results:
  - operationId: Mth01_CatVar_ByGrp_1_n
    resultGroups:
    - groupingId: AnlsGrouping_02_Trt
      groupId: AnlsGrouping_02_Trt_1
    - groupingId: AnlsGrouping_03_AgeGp
      groupId: AnlsGrouping_03_AgeGp_1
    rawValue: '14'
    formattedValue: '14'
  - operationId: Mth01_CatVar_ByGrp_1_n
    resultGroups:
    - groupingId: AnlsGrouping_02_Trt
      groupId: AnlsGrouping_02_Trt_1
    - groupingId: AnlsGrouping_03_AgeGp
      groupId: AnlsGrouping_03_AgeGp_2
    rawValue: '72'
    formattedValue: '72'
  - operationId: Mth01_CatVar_ByGrp_1_n
    resultGroups:
    - groupingId: AnlsGrouping_02_Trt
      groupId: AnlsGrouping_02_Trt_2
    - groupingId: AnlsGrouping_03_AgeGp
      groupId: AnlsGrouping_03_AgeGp_1
    rawValue: '8'
    formattedValue: '8'
  - operationId: Mth01_CatVar_ByGrp_1_n
    resultGroups:
    - groupingId: AnlsGrouping_02_Trt
      groupId: AnlsGrouping_02_Trt_2
    - groupingId: AnlsGrouping_03_AgeGp
      groupId: AnlsGrouping_03_AgeGp_2
    rawValue: '76'
    formattedValue: '76'
  - operationId: Mth01_CatVar_ByGrp_1_n
    resultGroups:
    - groupingId: AnlsGrouping_02_Trt
      groupId: AnlsGrouping_02_Trt_3
    - groupingId: AnlsGrouping_03_AgeGp
      groupId: AnlsGrouping_03_AgeGp_1
    rawValue: '11'
    formattedValue: '11'
  - operationId: Mth01_CatVar_ByGrp_1_n
    resultGroups:
    - groupingId: AnlsGrouping_02_Trt
      groupId: AnlsGrouping_02_Trt_3
    - groupingId: AnlsGrouping_03_AgeGp
      groupId: AnlsGrouping_03_AgeGp_2
    rawValue: '73'
    formattedValue: '73'
  - operationId: Mth01_CatVar_ByGrp_2_pct
    resultGroups:
    - groupingId: AnlsGrouping_02_Trt
      groupId: AnlsGrouping_02_Trt_1
    - groupingId: AnlsGrouping_03_AgeGp
      groupId: AnlsGrouping_03_AgeGp_1
    rawValue: '16.27906976744186'
    formattedValue: ( 16.3)
  - operationId: Mth01_CatVar_ByGrp_2_pct
    resultGroups:
    - groupingId: AnlsGrouping_02_Trt
      groupId: AnlsGrouping_02_Trt_1
    - groupingId: AnlsGrouping_03_AgeGp
      groupId: AnlsGrouping_03_AgeGp_2
    rawValue: '83.72093023255815'
    formattedValue: ( 83.7)
  - operationId: Mth01_CatVar_ByGrp_2_pct
    resultGroups:
    - groupingId: AnlsGrouping_02_Trt
      groupId: AnlsGrouping_02_Trt_2
    - groupingId: AnlsGrouping_03_AgeGp
      groupId: AnlsGrouping_03_AgeGp_1
    rawValue: '9.523809523809524'
    formattedValue: (  9.5)
  - operationId: Mth01_CatVar_ByGrp_2_pct
    resultGroups:
    - groupingId: AnlsGrouping_02_Trt
      groupId: AnlsGrouping_02_Trt_2
    - groupingId: AnlsGrouping_03_AgeGp
      groupId: AnlsGrouping_03_AgeGp_2
    rawValue: '90.47619047619048'
    formattedValue: ( 90.5)
  - operationId: Mth01_CatVar_ByGrp_2_pct
    resultGroups:
    - groupingId: AnlsGrouping_02_Trt
      groupId: AnlsGrouping_02_Trt_3
    - groupingId: AnlsGrouping_03_AgeGp
      groupId: AnlsGrouping_03_AgeGp_1
    rawValue: '13.095238095238095'
    formattedValue: ( 13.1)
  - operationId: Mth01_CatVar_ByGrp_2_pct
    resultGroups:
    - groupingId: AnlsGrouping_02_Trt
      groupId: AnlsGrouping_02_Trt_3
    - groupingId: AnlsGrouping_03_AgeGp
      groupId: AnlsGrouping_03_AgeGp_2
    rawValue: '86.9047619047619'
    formattedValue: ( 86.9)
- name: Summary of Subjects by Treatment and Sex
  id: An03.03_Sex_ByTrt
  methodId: Mth01_CatVar_ByGrp
  version: 1
  analysisSetId: AnalysisSet_02_SAF
  orderedGroupings:
  - order: 1
    groupingId: AnlsGrouping_02_Trt
  - order: 2
    groupingId: AnlsGrouping_01_Sex
  dataset: ADSL
  variable: USUBJID
  referencedAnalysisOperations:
  - analysisId: An03.03_Sex_ByTrt
    referencedOperationId: Mth01_CatVar_ByGrp_2_pct_NUM
  - analysisId: An01.05_SAF_ByTrt
    referencedOperationId: Mth01_CatVar_ByGrp_2_pct_DEN
  results:
  - operationId: Mth01_CatVar_ByGrp_1_n
    resultGroups:
    - groupingId: AnlsGrouping_02_Trt
      groupId: AnlsGrouping_02_Trt_1
    - groupingId: AnlsGrouping_01_Sex
      groupId: AnlsGrouping_01_Sex_1
    rawValue: '33'
    formattedValue: '33'
  - operationId: Mth01_CatVar_ByGrp_1_n
    resultGroups:
    - groupingId: AnlsGrouping_02_Trt
      groupId: AnlsGrouping_02_Trt_1
    - groupingId: AnlsGrouping_01_Sex
      groupId: AnlsGrouping_01_Sex_2
    rawValue: '53'
    formattedValue: '53'
  - operationId: Mth01_CatVar_ByGrp_1_n
    resultGroups:
    - groupingId: AnlsGrouping_02_Trt
      groupId: AnlsGrouping_02_Trt_2
    - groupingId: AnlsGrouping_01_Sex
      groupId: AnlsGrouping_01_Sex_1
    rawValue: '34'
    formattedValue: '34'
  - operationId: Mth01_CatVar_ByGrp_1_n
    resultGroups:
    - groupingId: AnlsGrouping_02_Trt
      groupId: AnlsGrouping_02_Trt_2
    - groupingId: AnlsGrouping_01_Sex
      groupId: AnlsGrouping_01_Sex_2
    rawValue: '50'
    formattedValue: '50'
  - operationId: Mth01_CatVar_ByGrp_1_n
    resultGroups:
    - groupingId: AnlsGrouping_02_Trt
      groupId: AnlsGrouping_02_Trt_3
    - groupingId: AnlsGrouping_01_Sex
      groupId: AnlsGrouping_01_Sex_1
    rawValue: '44'
    formattedValue: '44'
  - operationId: Mth01_CatVar_ByGrp_1_n
    resultGroups:
    - groupingId: AnlsGrouping_02_Trt
      groupId: AnlsGrouping_02_Trt_3
    - groupingId: AnlsGrouping_01_Sex
      groupId: AnlsGrouping_01_Sex_2
    rawValue: '40'
    formattedValue: '40'
  - operationId: Mth01_CatVar_ByGrp_2_pct
    resultGroups:
    - groupingId: AnlsGrouping_02_Trt
      groupId: AnlsGrouping_02_Trt_1
    - groupingId: AnlsGrouping_01_Sex
      groupId: AnlsGrouping_01_Sex_1
    rawValue: '38.372093023255815'
    formattedValue: ( 38.4)
  - operationId: Mth01_CatVar_ByGrp_2_pct
    resultGroups:
    - groupingId: AnlsGrouping_02_Trt
      groupId: AnlsGrouping_02_Trt_1
    - groupingId: AnlsGrouping_01_Sex
      groupId: AnlsGrouping_01_Sex_2
    rawValue: '61.627906976744185'
    formattedValue: ( 61.6)
  - operationId: Mth01_CatVar_ByGrp_2_pct
    resultGroups:
    - groupingId: AnlsGrouping_02_Trt
      groupId: AnlsGrouping_02_Trt_2
    - groupingId: AnlsGrouping_01_Sex
      groupId: AnlsGrouping_01_Sex_1
    rawValue: '40.476190476190474'
    formattedValue: ( 40.5)
  - operationId: Mth01_CatVar_ByGrp_2_pct
    resultGroups:
    - groupingId: AnlsGrouping_02_Trt
      groupId: AnlsGrouping_02_Trt_2
    - groupingId: AnlsGrouping_01_Sex
      groupId: AnlsGrouping_01_Sex_2
    rawValue: '59.523809523809526'
    formattedValue: ( 59.5)
  - operationId: Mth01_CatVar_ByGrp_2_pct
    resultGroups:
    - groupingId: AnlsGrouping_02_Trt
      groupId: AnlsGrouping_02_Trt_3
    - groupingId: AnlsGrouping_01_Sex
      groupId: AnlsGrouping_01_Sex_1
    rawValue: '52.38095238095238'
    formattedValue: ( 52.4)
  - operationId: Mth01_CatVar_ByGrp_2_pct
    resultGroups:
    - groupingId: AnlsGrouping_02_Trt
      groupId: AnlsGrouping_02_Trt_3
    - groupingId: AnlsGrouping_01_Sex
      groupId: AnlsGrouping_01_Sex_2
    rawValue: '47.61904761904762'
    formattedValue: ( 47.6)
- name: Summary of Subjects by Treatment and Ethnicity
  id: An03.04_Ethnic_ByTrt
  methodId: Mth01_CatVar_ByGrp
  version: 1
  analysisSetId: AnalysisSet_02_SAF
  orderedGroupings:
  - order: 1
    groupingId: AnlsGrouping_02_Trt
  - order: 2
    groupingId: AnlsGrouping_05_Ethnic
  dataset: ADSL
  variable: USUBJID
  referencedAnalysisOperations:
  - analysisId: An03.04_Ethnic_ByTrt
    referencedOperationId: Mth01_CatVar_ByGrp_2_pct_NUM
  - analysisId: An01.05_SAF_ByTrt
    referencedOperationId: Mth01_CatVar_ByGrp_2_pct_DEN
  results:
  - operationId: Mth01_CatVar_ByGrp_1_n
    resultGroups:
    - groupingId: AnlsGrouping_02_Trt
      groupId: AnlsGrouping_02_Trt_1
    - groupingId: AnlsGrouping_05_Ethnic
      groupId: AnlsGrouping_05_Ethnic_1
    rawValue: '3'
    formattedValue: '3'
  - operationId: Mth01_CatVar_ByGrp_1_n
    resultGroups:
    - groupingId: AnlsGrouping_02_Trt
      groupId: AnlsGrouping_02_Trt_1
    - groupingId: AnlsGrouping_05_Ethnic
      groupId: AnlsGrouping_05_Ethnic_2
    rawValue: '83'
    formattedValue: '83'
  - operationId: Mth01_CatVar_ByGrp_1_n
    resultGroups:
    - groupingId: AnlsGrouping_02_Trt
      groupId: AnlsGrouping_02_Trt_2
    - groupingId: AnlsGrouping_05_Ethnic
      groupId: AnlsGrouping_05_Ethnic_1
    rawValue: '3'
    formattedValue: '3'
  - operationId: Mth01_CatVar_ByGrp_1_n
    resultGroups:
    - groupingId: AnlsGrouping_02_Trt
      groupId: AnlsGrouping_02_Trt_2
    - groupingId: AnlsGrouping_05_Ethnic
      groupId: AnlsGrouping_05_Ethnic_2
    rawValue: '81'
    formattedValue: '81'
  - operationId: Mth01_CatVar_ByGrp_1_n
    resultGroups:
    - groupingId: AnlsGrouping_02_Trt
      groupId: AnlsGrouping_02_Trt_3
    - groupingId: AnlsGrouping_05_Ethnic
      groupId: AnlsGrouping_05_Ethnic_1
    rawValue: '6'
    formattedValue: '6'
  - operationId: Mth01_CatVar_ByGrp_1_n
    resultGroups:
    - groupingId: AnlsGrouping_02_Trt
      groupId: AnlsGrouping_02_Trt_3
    - groupingId: AnlsGrouping_05_Ethnic
      groupId: AnlsGrouping_05_Ethnic_2
    rawValue: '78'
    formattedValue: '78'
  - operationId: Mth01_CatVar_ByGrp_2_pct
    resultGroups:
    - groupingId: AnlsGrouping_02_Trt
      groupId: AnlsGrouping_02_Trt_1
    - groupingId: AnlsGrouping_05_Ethnic
      groupId: AnlsGrouping_05_Ethnic_1
    rawValue: '3.488372093023256'
    formattedValue: (  3.5)
  - operationId: Mth01_CatVar_ByGrp_2_pct
    resultGroups:
    - groupingId: AnlsGrouping_02_Trt
      groupId: AnlsGrouping_02_Trt_1
    - groupingId: AnlsGrouping_05_Ethnic
      groupId: AnlsGrouping_05_Ethnic_2
    rawValue: '96.51162790697674'
    formattedValue: ( 96.5)
  - operationId: Mth01_CatVar_ByGrp_2_pct
    resultGroups:
    - groupingId: AnlsGrouping_02_Trt
      groupId: AnlsGrouping_02_Trt_2
    - groupingId: AnlsGrouping_05_Ethnic
      groupId: AnlsGrouping_05_Ethnic_1
    rawValue: '3.5714285714285716'
    formattedValue: (  3.6)
  - operationId: Mth01_CatVar_ByGrp_2_pct
    resultGroups:
    - groupingId: AnlsGrouping_02_Trt
      groupId: AnlsGrouping_02_Trt_2
    - groupingId: AnlsGrouping_05_Ethnic
      groupId: AnlsGrouping_05_Ethnic_2
    rawValue: '96.42857142857143'
    formattedValue: ( 96.4)
  - operationId: Mth01_CatVar_ByGrp_2_pct
    resultGroups:
    - groupingId: AnlsGrouping_02_Trt
      groupId: AnlsGrouping_02_Trt_3
    - groupingId: AnlsGrouping_05_Ethnic
      groupId: AnlsGrouping_05_Ethnic_1
    rawValue: '7.142857142857143'
    formattedValue: (  7.1)
  - operationId: Mth01_CatVar_ByGrp_2_pct
    resultGroups:
    - groupingId: AnlsGrouping_02_Trt
      groupId: AnlsGrouping_02_Trt_3
    - groupingId: AnlsGrouping_05_Ethnic
      groupId: AnlsGrouping_05_Ethnic_2
    rawValue: '92.85714285714286'
    formattedValue: ( 92.9)
- name: Summary of Subjects by Treatment and Race
  id: An03.05_Race_ByTrt
  methodId: Mth01_CatVar_ByGrp
  version: 1
  analysisSetId: AnalysisSet_02_SAF
  orderedGroupings:
  - order: 1
    groupingId: AnlsGrouping_02_Trt
  - order: 2
    groupingId: AnlsGrouping_04_Race
  dataset: ADSL
  variable: USUBJID
  referencedAnalysisOperations:
  - analysisId: An03.05_Race_ByTrt
    referencedOperationId: Mth01_CatVar_ByGrp_2_pct_NUM
  - analysisId: An01.05_SAF_ByTrt
    referencedOperationId: Mth01_CatVar_ByGrp_2_pct_DEN
  results:
  - operationId: Mth01_CatVar_ByGrp_1_n
    resultGroups:
    - groupingId: AnlsGrouping_02_Trt
      groupId: AnlsGrouping_02_Trt_1
    - groupingId: AnlsGrouping_04_Race
      groupId: AnlsGrouping_04_Race_1
    rawValue: '0'
    formattedValue: '0'
  - operationId: Mth01_CatVar_ByGrp_1_n
    resultGroups:
    - groupingId: AnlsGrouping_02_Trt
      groupId: AnlsGrouping_02_Trt_1
    - groupingId: AnlsGrouping_04_Race
      groupId: AnlsGrouping_04_Race_2
    rawValue: '0'
    formattedValue: '0'
  - operationId: Mth01_CatVar_ByGrp_1_n
    resultGroups:
    - groupingId: AnlsGrouping_02_Trt
      groupId: AnlsGrouping_02_Trt_1
    - groupingId: AnlsGrouping_04_Race
      groupId: AnlsGrouping_04_Race_3
    rawValue: '8'
    formattedValue: '8'
  - operationId: Mth01_CatVar_ByGrp_1_n
    resultGroups:
    - groupingId: AnlsGrouping_02_Trt
      groupId: AnlsGrouping_02_Trt_1
    - groupingId: AnlsGrouping_04_Race
      groupId: AnlsGrouping_04_Race_4
    rawValue: '0'
    formattedValue: '0'
  - operationId: Mth01_CatVar_ByGrp_1_n
    resultGroups:
    - groupingId: AnlsGrouping_02_Trt
      groupId: AnlsGrouping_02_Trt_1
    - groupingId: AnlsGrouping_04_Race
      groupId: AnlsGrouping_04_Race_5
    rawValue: '78'
    formattedValue: '78'
  - operationId: Mth01_CatVar_ByGrp_1_n
    resultGroups:
    - groupingId: AnlsGrouping_02_Trt
      groupId: AnlsGrouping_02_Trt_1
    - groupingId: AnlsGrouping_04_Race
      groupId: AnlsGrouping_04_Race_6
    rawValue: '0'
    formattedValue: '0'
  - operationId: Mth01_CatVar_ByGrp_1_n
    resultGroups:
    - groupingId: AnlsGrouping_02_Trt
      groupId: AnlsGrouping_02_Trt_1
    - groupingId: AnlsGrouping_04_Race
      groupId: AnlsGrouping_04_Race_7
    rawValue: '0'
    formattedValue: '0'
  - operationId: Mth01_CatVar_ByGrp_1_n
    resultGroups:
    - groupingId: AnlsGrouping_02_Trt
      groupId: AnlsGrouping_02_Trt_1
    - groupingId: AnlsGrouping_04_Race
      groupId: AnlsGrouping_04_Race_8
    rawValue: '0'
    formattedValue: '0'
  - operationId: Mth01_CatVar_ByGrp_1_n
    resultGroups:
    - groupingId: AnlsGrouping_02_Trt
      groupId: AnlsGrouping_02_Trt_1
    - groupingId: AnlsGrouping_04_Race
      groupId: AnlsGrouping_04_Race_9
    rawValue: '0'
    formattedValue: '0'
  - operationId: Mth01_CatVar_ByGrp_1_n
    resultGroups:
    - groupingId: AnlsGrouping_02_Trt
      groupId: AnlsGrouping_02_Trt_2
    - groupingId: AnlsGrouping_04_Race
      groupId: AnlsGrouping_04_Race_1
    rawValue: '1'
    formattedValue: '1'
  - operationId: Mth01_CatVar_ByGrp_1_n
    resultGroups:
    - groupingId: AnlsGrouping_02_Trt
      groupId: AnlsGrouping_02_Trt_2
    - groupingId: AnlsGrouping_04_Race
      groupId: AnlsGrouping_04_Race_2
    rawValue: '0'
    formattedValue: '0'
  - operationId: Mth01_CatVar_ByGrp_1_n
    resultGroups:
    - groupingId: AnlsGrouping_02_Trt
      groupId: AnlsGrouping_02_Trt_2
    - groupingId: AnlsGrouping_04_Race
      groupId: AnlsGrouping_04_Race_3
    rawValue: '9'
    formattedValue: '9'
  - operationId: Mth01_CatVar_ByGrp_1_n
    resultGroups:
    - groupingId: AnlsGrouping_02_Trt
      groupId: AnlsGrouping_02_Trt_2
    - groupingId: AnlsGrouping_04_Race
      groupId: AnlsGrouping_04_Race_4
    rawValue: '0'
    formattedValue: '0'
  - operationId: Mth01_CatVar_ByGrp_1_n
    resultGroups:
    - groupingId: AnlsGrouping_02_Trt
      groupId: AnlsGrouping_02_Trt_2
    - groupingId: AnlsGrouping_04_Race
      groupId: AnlsGrouping_04_Race_5
    rawValue: '74'
    formattedValue: '74'
  - operationId: Mth01_CatVar_ByGrp_1_n
    resultGroups:
    - groupingId: AnlsGrouping_02_Trt
      groupId: AnlsGrouping_02_Trt_2
    - groupingId: AnlsGrouping_04_Race
      groupId: AnlsGrouping_04_Race_6
    rawValue: '0'
    formattedValue: '0'
  - operationId: Mth01_CatVar_ByGrp_1_n
    resultGroups:
    - groupingId: AnlsGrouping_02_Trt
      groupId: AnlsGrouping_02_Trt_2
    - groupingId: AnlsGrouping_04_Race
      groupId: AnlsGrouping_04_Race_7
    rawValue: '0'
    formattedValue: '0'
  - operationId: Mth01_CatVar_ByGrp_1_n
    resultGroups:
    - groupingId: AnlsGrouping_02_Trt
      groupId: AnlsGrouping_02_Trt_2
    - groupingId: AnlsGrouping_04_Race
      groupId: AnlsGrouping_04_Race_8
    rawValue: '0'
    formattedValue: '0'
  - operationId: Mth01_CatVar_ByGrp_1_n
    resultGroups:
    - groupingId: AnlsGrouping_02_Trt
      groupId: AnlsGrouping_02_Trt_2
    - groupingId: AnlsGrouping_04_Race
      groupId: AnlsGrouping_04_Race_9
    rawValue: '0'
    formattedValue: '0'
  - operationId: Mth01_CatVar_ByGrp_1_n
    resultGroups:
    - groupingId: AnlsGrouping_02_Trt
      groupId: AnlsGrouping_02_Trt_3
    - groupingId: AnlsGrouping_04_Race
      groupId: AnlsGrouping_04_Race_1
    rawValue: '0'
    formattedValue: '0'
  - operationId: Mth01_CatVar_ByGrp_1_n
    resultGroups:
    - groupingId: AnlsGrouping_02_Trt
      groupId: AnlsGrouping_02_Trt_3
    - groupingId: AnlsGrouping_04_Race
      groupId: AnlsGrouping_04_Race_2
    rawValue: '0'
    formattedValue: '0'
  - operationId: Mth01_CatVar_ByGrp_1_n
    resultGroups:
    - groupingId: AnlsGrouping_02_Trt
      groupId: AnlsGrouping_02_Trt_3
    - groupingId: AnlsGrouping_04_Race
      groupId: AnlsGrouping_04_Race_3
    rawValue: '6'
    formattedValue: '6'
  - operationId: Mth01_CatVar_ByGrp_1_n
    resultGroups:
    - groupingId: AnlsGrouping_02_Trt
      groupId: AnlsGrouping_02_Trt_3
    - groupingId: AnlsGrouping_04_Race
      groupId: AnlsGrouping_04_Race_4
    rawValue: '0'
    formattedValue: '0'
  - operationId: Mth01_CatVar_ByGrp_1_n
    resultGroups:
    - groupingId: AnlsGrouping_02_Trt
      groupId: AnlsGrouping_02_Trt_3
    - groupingId: AnlsGrouping_04_Race
      groupId: AnlsGrouping_04_Race_5
    rawValue: '78'
    formattedValue: '78'
  - operationId: Mth01_CatVar_ByGrp_1_n
    resultGroups:
    - groupingId: AnlsGrouping_02_Trt
      groupId: AnlsGrouping_02_Trt_3
    - groupingId: AnlsGrouping_04_Race
      groupId: AnlsGrouping_04_Race_6
    rawValue: '0'
    formattedValue: '0'
  - operationId: Mth01_CatVar_ByGrp_1_n
    resultGroups:
    - groupingId: AnlsGrouping_02_Trt
      groupId: AnlsGrouping_02_Trt_3
    - groupingId: AnlsGrouping_04_Race
      groupId: AnlsGrouping_04_Race_7
    rawValue: '0'
    formattedValue: '0'
  - operationId: Mth01_CatVar_ByGrp_1_n
    resultGroups:
    - groupingId: AnlsGrouping_02_Trt
      groupId: AnlsGrouping_02_Trt_3
    - groupingId: AnlsGrouping_04_Race
      groupId: AnlsGrouping_04_Race_8
    rawValue: '0'
    formattedValue: '0'
  - operationId: Mth01_CatVar_ByGrp_1_n
    resultGroups:
    - groupingId: AnlsGrouping_02_Trt
      groupId: AnlsGrouping_02_Trt_3
    - groupingId: AnlsGrouping_04_Race
      groupId: AnlsGrouping_04_Race_9
    rawValue: '0'
    formattedValue: '0'
  - operationId: Mth01_CatVar_ByGrp_2_pct
    resultGroups:
    - groupingId: AnlsGrouping_02_Trt
      groupId: AnlsGrouping_02_Trt_1
    - groupingId: AnlsGrouping_04_Race
      groupId: AnlsGrouping_04_Race_1
    rawValue: '0'
    formattedValue: (  0.0)
  - operationId: Mth01_CatVar_ByGrp_2_pct
    resultGroups:
    - groupingId: AnlsGrouping_02_Trt
      groupId: AnlsGrouping_02_Trt_1
    - groupingId: AnlsGrouping_04_Race
      groupId: AnlsGrouping_04_Race_2
    rawValue: '0'
    formattedValue: (  0.0)
  - operationId: Mth01_CatVar_ByGrp_2_pct
    resultGroups:
    - groupingId: AnlsGrouping_02_Trt
      groupId: AnlsGrouping_02_Trt_1
    - groupingId: AnlsGrouping_04_Race
      groupId: AnlsGrouping_04_Race_3
    rawValue: '9.30232558139535'
    formattedValue: (  9.3)
  - operationId: Mth01_CatVar_ByGrp_2_pct
    resultGroups:
    - groupingId: AnlsGrouping_02_Trt
      groupId: AnlsGrouping_02_Trt_1
    - groupingId: AnlsGrouping_04_Race
      groupId: AnlsGrouping_04_Race_4
    rawValue: '0'
    formattedValue: (  0.0)
  - operationId: Mth01_CatVar_ByGrp_2_pct
    resultGroups:
    - groupingId: AnlsGrouping_02_Trt
      groupId: AnlsGrouping_02_Trt_1
    - groupingId: AnlsGrouping_04_Race
      groupId: AnlsGrouping_04_Race_5
    rawValue: '90.69767441860465'
    formattedValue: ( 90.7)
  - operationId: Mth01_CatVar_ByGrp_2_pct
    resultGroups:
    - groupingId: AnlsGrouping_02_Trt
      groupId: AnlsGrouping_02_Trt_1
    - groupingId: AnlsGrouping_04_Race
      groupId: AnlsGrouping_04_Race_6
    rawValue: '0'
    formattedValue: (  0.0)
  - operationId: Mth01_CatVar_ByGrp_2_pct
    resultGroups:
    - groupingId: AnlsGrouping_02_Trt
      groupId: AnlsGrouping_02_Trt_1
    - groupingId: AnlsGrouping_04_Race
      groupId: AnlsGrouping_04_Race_7
    rawValue: '0'
    formattedValue: (  0.0)
  - operationId: Mth01_CatVar_ByGrp_2_pct
    resultGroups:
    - groupingId: AnlsGrouping_02_Trt
      groupId: AnlsGrouping_02_Trt_1
    - groupingId: AnlsGrouping_04_Race
      groupId: AnlsGrouping_04_Race_8
    rawValue: '0'
    formattedValue: (  0.0)
  - operationId: Mth01_CatVar_ByGrp_2_pct
    resultGroups:
    - groupingId: AnlsGrouping_02_Trt
      groupId: AnlsGrouping_02_Trt_1
    - groupingId: AnlsGrouping_04_Race
      groupId: AnlsGrouping_04_Race_9
    rawValue: '0'
    formattedValue: (  0.0)
  - operationId: Mth01_CatVar_ByGrp_2_pct
    resultGroups:
    - groupingId: AnlsGrouping_02_Trt
      groupId: AnlsGrouping_02_Trt_2
    - groupingId: AnlsGrouping_04_Race
      groupId: AnlsGrouping_04_Race_1
    rawValue: '1.1904761904761905'
    formattedValue: (  1.2)
  - operationId: Mth01_CatVar_ByGrp_2_pct
    resultGroups:
    - groupingId: AnlsGrouping_02_Trt
      groupId: AnlsGrouping_02_Trt_2
    - groupingId: AnlsGrouping_04_Race
      groupId: AnlsGrouping_04_Race_2
    rawValue: '0'
    formattedValue: (  0.0)
  - operationId: Mth01_CatVar_ByGrp_2_pct
    resultGroups:
    - groupingId: AnlsGrouping_02_Trt
      groupId: AnlsGrouping_02_Trt_2
    - groupingId: AnlsGrouping_04_Race
      groupId: AnlsGrouping_04_Race_3
    rawValue: '10.714285714285714'
    formattedValue: ( 10.7)
  - operationId: Mth01_CatVar_ByGrp_2_pct
    resultGroups:
    - groupingId: AnlsGrouping_02_Trt
      groupId: AnlsGrouping_02_Trt_2
    - groupingId: AnlsGrouping_04_Race
      groupId: AnlsGrouping_04_Race_4
    rawValue: '0'
    formattedValue: (  0.0)
  - operationId: Mth01_CatVar_ByGrp_2_pct
    resultGroups:
    - groupingId: AnlsGrouping_02_Trt
      groupId: AnlsGrouping_02_Trt_2
    - groupingId: AnlsGrouping_04_Race
      groupId: AnlsGrouping_04_Race_5
    rawValue: '88.0952380952381'
    formattedValue: ( 88.1)
  - operationId: Mth01_CatVar_ByGrp_2_pct
    resultGroups:
    - groupingId: AnlsGrouping_02_Trt
      groupId: AnlsGrouping_02_Trt_2
    - groupingId: AnlsGrouping_04_Race
      groupId: AnlsGrouping_04_Race_6
    rawValue: '0'
    formattedValue: (  0.0)
  - operationId: Mth01_CatVar_ByGrp_2_pct
    resultGroups:
    - groupingId: AnlsGrouping_02_Trt
      groupId: AnlsGrouping_02_Trt_2
    - groupingId: AnlsGrouping_04_Race
      groupId: AnlsGrouping_04_Race_7
    rawValue: '0'
    formattedValue: (  0.0)
  - operationId: Mth01_CatVar_ByGrp_2_pct
    resultGroups:
    - groupingId: AnlsGrouping_02_Trt
      groupId: AnlsGrouping_02_Trt_2
    - groupingId: AnlsGrouping_04_Race
      groupId: AnlsGrouping_04_Race_8
    rawValue: '0'
    formattedValue: (  0.0)
  - operationId: Mth01_CatVar_ByGrp_2_pct
    resultGroups:
    - groupingId: AnlsGrouping_02_Trt
      groupId: AnlsGrouping_02_Trt_2
    - groupingId: AnlsGrouping_04_Race
      groupId: AnlsGrouping_04_Race_9
    rawValue: '0'
    formattedValue: (  0.0)
  - operationId: Mth01_CatVar_ByGrp_2_pct
    resultGroups:
    - groupingId: AnlsGrouping_02_Trt
      groupId: AnlsGrouping_02_Trt_3
    - groupingId: AnlsGrouping_04_Race
      groupId: AnlsGrouping_04_Race_1
    rawValue: '0'
    formattedValue: (  0.0)
  - operationId: Mth01_CatVar_ByGrp_2_pct
    resultGroups:
    - groupingId: AnlsGrouping_02_Trt
      groupId: AnlsGrouping_02_Trt_3
    - groupingId: AnlsGrouping_04_Race
      groupId: AnlsGrouping_04_Race_2
    rawValue: '0'
    formattedValue: (  0.0)
  - operationId: Mth01_CatVar_ByGrp_2_pct
    resultGroups:
    - groupingId: AnlsGrouping_02_Trt
      groupId: AnlsGrouping_02_Trt_3
    - groupingId: AnlsGrouping_04_Race
      groupId: AnlsGrouping_04_Race_3
    rawValue: '7.142857142857143'
    formattedValue: (  7.1)
  - operationId: Mth01_CatVar_ByGrp_2_pct
    resultGroups:
    - groupingId: AnlsGrouping_02_Trt
      groupId: AnlsGrouping_02_Trt_3
    - groupingId: AnlsGrouping_04_Race
      groupId: AnlsGrouping_04_Race_4
    rawValue: '0'
    formattedValue: (  0.0)
  - operationId: Mth01_CatVar_ByGrp_2_pct
    resultGroups:
    - groupingId: AnlsGrouping_02_Trt
      groupId: AnlsGrouping_02_Trt_3
    - groupingId: AnlsGrouping_04_Race
      groupId: AnlsGrouping_04_Race_5
    rawValue: '92.85714285714286'
    formattedValue: ( 92.9)
  - operationId: Mth01_CatVar_ByGrp_2_pct
    resultGroups:
    - groupingId: AnlsGrouping_02_Trt
      groupId: AnlsGrouping_02_Trt_3
    - groupingId: AnlsGrouping_04_Race
      groupId: AnlsGrouping_04_Race_6
    rawValue: '0'
    formattedValue: (  0.0)
  - operationId: Mth01_CatVar_ByGrp_2_pct
    resultGroups:
    - groupingId: AnlsGrouping_02_Trt
      groupId: AnlsGrouping_02_Trt_3
    - groupingId: AnlsGrouping_04_Race
      groupId: AnlsGrouping_04_Race_7
    rawValue: '0'
    formattedValue: (  0.0)
  - operationId: Mth01_CatVar_ByGrp_2_pct
    resultGroups:
    - groupingId: AnlsGrouping_02_Trt
      groupId: AnlsGrouping_02_Trt_3
    - groupingId: AnlsGrouping_04_Race
      groupId: AnlsGrouping_04_Race_8
    rawValue: '0'
    formattedValue: (  0.0)
  - operationId: Mth01_CatVar_ByGrp_2_pct
    resultGroups:
    - groupingId: AnlsGrouping_02_Trt
      groupId: AnlsGrouping_02_Trt_3
    - groupingId: AnlsGrouping_04_Race
      groupId: AnlsGrouping_04_Race_9
    rawValue: '0'
    formattedValue: (  0.0)
- name: Summary of Height by Treatment
  id: An03.06_Height_ByTrt
  methodId: Mth02_ContVar_ByGrp
  version: 1
  analysisSetId: AnalysisSet_02_SAF
  orderedGroupings:
  - order: 1
    groupingId: AnlsGrouping_02_Trt
  dataset: ADSL
  variable: HEIGHTBL
  results:
  - operationId: Mth02_ContVar_ByGrp_1_n
    resultGroups:
    - groupingId: AnlsGrouping_02_Trt
      groupId: AnlsGrouping_02_Trt_1
    rawValue: '86'
    formattedValue: '86'
  - operationId: Mth02_ContVar_ByGrp_1_n
    resultGroups:
    - groupingId: AnlsGrouping_02_Trt
      groupId: AnlsGrouping_02_Trt_2
    rawValue: '84'
    formattedValue: '84'
  - operationId: Mth02_ContVar_ByGrp_1_n
    resultGroups:
    - groupingId: AnlsGrouping_02_Trt
      groupId: AnlsGrouping_02_Trt_3
    rawValue: '84'
    formattedValue: '84'
  - operationId: Mth02_ContVar_ByGrp_2_Mean
    resultGroups:
    - groupingId: AnlsGrouping_02_Trt
      groupId: AnlsGrouping_02_Trt_1
    rawValue: '162.5732558'
    formattedValue: '162.6'
  - operationId: Mth02_ContVar_ByGrp_2_Mean
    resultGroups:
    - groupingId: AnlsGrouping_02_Trt
      groupId: AnlsGrouping_02_Trt_2
    rawValue: '165.8202381'
    formattedValue: '165.8'
  - operationId: Mth02_ContVar_ByGrp_2_Mean
    resultGroups:
    - groupingId: AnlsGrouping_02_Trt
      groupId: AnlsGrouping_02_Trt_3
    rawValue: '163.4333333'
    formattedValue: '163.4'
  - operationId: Mth02_ContVar_ByGrp_3_SD
    resultGroups:
    - groupingId: AnlsGrouping_02_Trt
      groupId: AnlsGrouping_02_Trt_1
    rawValue: '11.5223611'
    formattedValue: (11.52)
  - operationId: Mth02_ContVar_ByGrp_3_SD
    resultGroups:
    - groupingId: AnlsGrouping_02_Trt
      groupId: AnlsGrouping_02_Trt_2
    rawValue: '10.41924'
    formattedValue: (10.42)
  - operationId: Mth02_ContVar_ByGrp_3_SD
    resultGroups:
    - groupingId: AnlsGrouping_02_Trt
      groupId: AnlsGrouping_02_Trt_3
    rawValue: '10.1313516'
    formattedValue: (10.13)
  - operationId: Mth02_ContVar_ByGrp_4_Median
    resultGroups:
    - groupingId: AnlsGrouping_02_Trt
      groupId: AnlsGrouping_02_Trt_1
    rawValue: '162.6'
    formattedValue: '162.6'
  - operationId: Mth02_ContVar_ByGrp_4_Median
    resultGroups:
    - groupingId: AnlsGrouping_02_Trt
      groupId: AnlsGrouping_02_Trt_2
    rawValue: '162.2'
    formattedValue: '162.2'
  - operationId: Mth02_ContVar_ByGrp_4_Median
    resultGroups:
    - groupingId: AnlsGrouping_02_Trt
      groupId: AnlsGrouping_02_Trt_3
    rawValue: '165.1'
    formattedValue: '165.1'
  - operationId: Mth02_ContVar_ByGrp_5_Q1
    resultGroups:
    - groupingId: AnlsGrouping_02_Trt
      groupId: AnlsGrouping_02_Trt_1
    rawValue: '153.7'
    formattedValue: '153.7'
  - operationId: Mth02_ContVar_ByGrp_5_Q1
    resultGroups:
    - groupingId: AnlsGrouping_02_Trt
      groupId: AnlsGrouping_02_Trt_2
    rawValue: '157.5'
    formattedValue: '157.5'
  - operationId: Mth02_ContVar_ByGrp_5_Q1
    resultGroups:
    - groupingId: AnlsGrouping_02_Trt
      groupId: AnlsGrouping_02_Trt_3
    rawValue: '157.5'
    formattedValue: '157.5'
  - operationId: Mth02_ContVar_ByGrp_6_Q3
    resultGroups:
    - groupingId: AnlsGrouping_02_Trt
      groupId: AnlsGrouping_02_Trt_1
    rawValue: '171.5'
    formattedValue: '171.5'
  - operationId: Mth02_ContVar_ByGrp_6_Q3
    resultGroups:
    - groupingId: AnlsGrouping_02_Trt
      groupId: AnlsGrouping_02_Trt_2
    rawValue: '170.2'
    formattedValue: '170.2'
  - operationId: Mth02_ContVar_ByGrp_6_Q3
    resultGroups:
    - groupingId: AnlsGrouping_02_Trt
      groupId: AnlsGrouping_02_Trt_3
    rawValue: '172.85'
    formattedValue: '172.9'
  - operationId: Mth02_ContVar_ByGrp_7_Min
    resultGroups:
    - groupingId: AnlsGrouping_02_Trt
      groupId: AnlsGrouping_02_Trt_1
    rawValue: '137.2'
    formattedValue: '137.2'
  - operationId: Mth02_ContVar_ByGrp_7_Min
    resultGroups:
    - groupingId: AnlsGrouping_02_Trt
      groupId: AnlsGrouping_02_Trt_2
    rawValue: '135.9'
    formattedValue: '135.9'
  - operationId: Mth02_ContVar_ByGrp_7_Min
    resultGroups:
    - groupingId: AnlsGrouping_02_Trt
      groupId: AnlsGrouping_02_Trt_3
    rawValue: '146.1'
    formattedValue: '146.1'
  - operationId: Mth02_ContVar_ByGrp_8_Max
    resultGroups:
    - groupingId: AnlsGrouping_02_Trt
      groupId: AnlsGrouping_02_Trt_1
    rawValue: '185.4'
    formattedValue: '185.4'
  - operationId: Mth02_ContVar_ByGrp_8_Max
    resultGroups:
    - groupingId: AnlsGrouping_02_Trt
      groupId: AnlsGrouping_02_Trt_2
    rawValue: '195.6'
    formattedValue: '195.6'
  - operationId: Mth02_ContVar_ByGrp_8_Max
    resultGroups:
    - groupingId: AnlsGrouping_02_Trt
      groupId: AnlsGrouping_02_Trt_3
    rawValue: '190.5'
    formattedValue: '190.5'
- name: Summary of Subjects with At Least One TEAE, by Treatment
  id: An07.01_TEAE_ByTrt
  methodId: Mth01_CatVar_ByGrp
  version: 1
  analysisSetId: AnalysisSet_02_SAF
  orderedGroupings:
  - order: 1
    groupingId: AnlsGrouping_02_Trt
  dataSubsetId: Dss01_TEAE
  dataset: ADAE
  variable: USUBJID
  referencedAnalysisOperations:
  - analysisId: An07.01_TEAE_ByTrt
    referencedOperationId: Mth01_CatVar_ByGrp_2_pct_NUM
  - analysisId: An01.05_SAF_ByTrt
    referencedOperationId: Mth01_CatVar_ByGrp_2_pct_DEN
  results:
  - operationId: Mth01_CatVar_ByGrp_1_n
    resultGroups:
    - groupingId: AnlsGrouping_02_Trt
      groupId: AnlsGrouping_02_Trt_1
    rawValue: '65'
    formattedValue: '65'
  - operationId: Mth01_CatVar_ByGrp_2_pct
    resultGroups:
    - groupingId: AnlsGrouping_02_Trt
      groupId: AnlsGrouping_02_Trt_1
    rawValue: '75.581395349'
    formattedValue: ( 75.6)
  - operationId: Mth01_CatVar_ByGrp_1_n
    resultGroups:
    - groupingId: AnlsGrouping_02_Trt
      groupId: AnlsGrouping_02_Trt_2
    rawValue: '77'
    formattedValue: '77'
  - operationId: Mth01_CatVar_ByGrp_2_pct
    resultGroups:
    - groupingId: AnlsGrouping_02_Trt
      groupId: AnlsGrouping_02_Trt_2
    rawValue: '91.666666667'
    formattedValue: ( 91.7)
  - operationId: Mth01_CatVar_ByGrp_1_n
    resultGroups:
    - groupingId: AnlsGrouping_02_Trt
      groupId: AnlsGrouping_02_Trt_3
    rawValue: '76'
    formattedValue: '76'
  - operationId: Mth01_CatVar_ByGrp_2_pct
    resultGroups:
    - groupingId: AnlsGrouping_02_Trt
      groupId: AnlsGrouping_02_Trt_3
    rawValue: '90.476190476'
    formattedValue: ( 90.5)
- name: Summary of Subjects with At Least One Related TEAE, by Treatment
  id: An07.02_RelTEAE_ByTrt
  methodId: Mth01_CatVar_ByGrp
  version: 1
  analysisSetId: AnalysisSet_02_SAF
  orderedGroupings:
  - order: 1
    groupingId: AnlsGrouping_02_Trt
  dataSubsetId: Dss02_Related_TEAE
  dataset: ADAE
  variable: USUBJID
  referencedAnalysisOperations:
  - analysisId: An07.02_RelTEAE_ByTrt
    referencedOperationId: Mth01_CatVar_ByGrp_2_pct_NUM
  - analysisId: An01.05_SAF_ByTrt
    referencedOperationId: Mth01_CatVar_ByGrp_2_pct_DEN
  results:
  - operationId: Mth01_CatVar_ByGrp_1_n
    resultGroups:
    - groupingId: AnlsGrouping_02_Trt
      groupId: AnlsGrouping_02_Trt_1
    rawValue: '43'
    formattedValue: '43'
  - operationId: Mth01_CatVar_ByGrp_2_pct
    resultGroups:
    - groupingId: AnlsGrouping_02_Trt
      groupId: AnlsGrouping_02_Trt_1
    rawValue: '50'
    formattedValue: ( 50.0)
  - operationId: Mth01_CatVar_ByGrp_1_n
    resultGroups:
    - groupingId: AnlsGrouping_02_Trt
      groupId: AnlsGrouping_02_Trt_2
    rawValue: '72'
    formattedValue: '72'
  - operationId: Mth01_CatVar_ByGrp_2_pct
    resultGroups:
    - groupingId: AnlsGrouping_02_Trt
      groupId: AnlsGrouping_02_Trt_2
    rawValue: '85.71428571428571'
    formattedValue: ( 85.7)
  - operationId: Mth01_CatVar_ByGrp_1_n
    resultGroups:
    - groupingId: AnlsGrouping_02_Trt
      groupId: AnlsGrouping_02_Trt_3
    rawValue: '70'
    formattedValue: '70'
  - operationId: Mth01_CatVar_ByGrp_2_pct
    resultGroups:
    - groupingId: AnlsGrouping_02_Trt
      groupId: AnlsGrouping_02_Trt_3
    rawValue: '83.33333333333333'
    formattedValue: ( 83.3)
- name: Summary of Subjects with At Least One Serious TEAE, by Treatment
  id: An07.03_SerTEAE_ByTrt
  methodId: Mth01_CatVar_ByGrp
  version: 1
  analysisSetId: AnalysisSet_02_SAF
  orderedGroupings:
  - order: 1
    groupingId: AnlsGrouping_02_Trt
  dataSubsetId: Dss03_Serious_TEAE
  dataset: ADAE
  variable: USUBJID
  referencedAnalysisOperations:
  - analysisId: An07.03_SerTEAE_ByTrt
    referencedOperationId: Mth01_CatVar_ByGrp_2_pct_NUM
  - analysisId: An01.05_SAF_ByTrt
    referencedOperationId: Mth01_CatVar_ByGrp_2_pct_DEN
  results:
  - operationId: Mth01_CatVar_ByGrp_1_n
    resultGroups:
    - groupingId: AnlsGrouping_02_Trt
      groupId: AnlsGrouping_02_Trt_1
    rawValue: '0'
    formattedValue: '0'
  - operationId: Mth01_CatVar_ByGrp_2_pct
    resultGroups:
    - groupingId: AnlsGrouping_02_Trt
      groupId: AnlsGrouping_02_Trt_1
    rawValue: '0'
    formattedValue: (  0.0)
  - operationId: Mth01_CatVar_ByGrp_1_n
    resultGroups:
    - groupingId: AnlsGrouping_02_Trt
      groupId: AnlsGrouping_02_Trt_2
    rawValue: '1'
    formattedValue: '1'
  - operationId: Mth01_CatVar_ByGrp_2_pct
    resultGroups:
    - groupingId: AnlsGrouping_02_Trt
      groupId: AnlsGrouping_02_Trt_2
    rawValue: '1.1904761904761905'
    formattedValue: (  1.2)
  - operationId: Mth01_CatVar_ByGrp_1_n
    resultGroups:
    - groupingId: AnlsGrouping_02_Trt
      groupId: AnlsGrouping_02_Trt_3
    rawValue: '2'
    formattedValue: '2'
  - operationId: Mth01_CatVar_ByGrp_2_pct
    resultGroups:
    - groupingId: AnlsGrouping_02_Trt
      groupId: AnlsGrouping_02_Trt_3
    rawValue: '2.380952380952381'
    formattedValue: (  2.4)
- name: Summary of Subjects with At Least One Related Serious TEAE, by Treatment
  id: An07.04_RelSerTEAE_ByTrt
  methodId: Mth01_CatVar_ByGrp
  version: 1
  analysisSetId: AnalysisSet_02_SAF
  orderedGroupings:
  - order: 1
    groupingId: AnlsGrouping_02_Trt
  dataSubsetId: Dss04_RelSer_TEAE
  dataset: ADAE
  variable: USUBJID
  referencedAnalysisOperations:
  - analysisId: An07.04_RelSerTEAE_ByTrt
    referencedOperationId: Mth01_CatVar_ByGrp_2_pct_NUM
  - analysisId: An01.05_SAF_ByTrt
    referencedOperationId: Mth01_CatVar_ByGrp_2_pct_DEN
  results:
  - operationId: Mth01_CatVar_ByGrp_1_n
    resultGroups:
    - groupingId: AnlsGrouping_02_Trt
      groupId: AnlsGrouping_02_Trt_1
    rawValue: '0'
    formattedValue: '0'
  - operationId: Mth01_CatVar_ByGrp_2_pct
    resultGroups:
    - groupingId: AnlsGrouping_02_Trt
      groupId: AnlsGrouping_02_Trt_1
    rawValue: '0'
    formattedValue: (  0.0)
  - operationId: Mth01_CatVar_ByGrp_1_n
    resultGroups:
    - groupingId: AnlsGrouping_02_Trt
      groupId: AnlsGrouping_02_Trt_2
    rawValue: '1'
    formattedValue: '1'
  - operationId: Mth01_CatVar_ByGrp_2_pct
    resultGroups:
    - groupingId: AnlsGrouping_02_Trt
      groupId: AnlsGrouping_02_Trt_2
    rawValue: '1.1904761904761905'
    formattedValue: (  1.2)
  - operationId: Mth01_CatVar_ByGrp_1_n
    resultGroups:
    - groupingId: AnlsGrouping_02_Trt
      groupId: AnlsGrouping_02_Trt_3
    rawValue: '1'
    formattedValue: '1'
  - operationId: Mth01_CatVar_ByGrp_2_pct
    resultGroups:
    - groupingId: AnlsGrouping_02_Trt
      groupId: AnlsGrouping_02_Trt_3
    rawValue: '1.1904761904761905'
    formattedValue: (  1.2)
- name: Summary of Subjects with At Least One TEAE Leading to Death, by Treatment
  id: An07.05_TEAELd2Dth_ByTrt
  methodId: Mth01_CatVar_ByGrp
  version: 1
  analysisSetId: AnalysisSet_02_SAF
  orderedGroupings:
  - order: 1
    groupingId: AnlsGrouping_02_Trt
  dataSubsetId: Dss05_TEAE_Ld2Dth
  dataset: ADAE
  variable: USUBJID
  referencedAnalysisOperations:
  - analysisId: An07.05_TEAELd2Dth_ByTrt
    referencedOperationId: Mth01_CatVar_ByGrp_2_pct_NUM
  - analysisId: An01.05_SAF_ByTrt
    referencedOperationId: Mth01_CatVar_ByGrp_2_pct_DEN
  results:
  - operationId: Mth01_CatVar_ByGrp_1_n
    resultGroups:
    - groupingId: AnlsGrouping_02_Trt
      groupId: AnlsGrouping_02_Trt_1
    rawValue: '2'
    formattedValue: '2'
  - operationId: Mth01_CatVar_ByGrp_2_pct
    resultGroups:
    - groupingId: AnlsGrouping_02_Trt
      groupId: AnlsGrouping_02_Trt_1
    rawValue: '2.3255813953488373'
    formattedValue: (  2.3)
  - operationId: Mth01_CatVar_ByGrp_1_n
    resultGroups:
    - groupingId: AnlsGrouping_02_Trt
      groupId: AnlsGrouping_02_Trt_2
    rawValue: '1'
    formattedValue: '1'
  - operationId: Mth01_CatVar_ByGrp_2_pct
    resultGroups:
    - groupingId: AnlsGrouping_02_Trt
      groupId: AnlsGrouping_02_Trt_2
    rawValue: '1.1904761904761905'
    formattedValue: (  1.2)
  - operationId: Mth01_CatVar_ByGrp_1_n
    resultGroups:
    - groupingId: AnlsGrouping_02_Trt
      groupId: AnlsGrouping_02_Trt_3
    rawValue: '0'
    formattedValue: '0'
  - operationId: Mth01_CatVar_ByGrp_2_pct
    resultGroups:
    - groupingId: AnlsGrouping_02_Trt
      groupId: AnlsGrouping_02_Trt_3
    rawValue: '0'
    formattedValue: (  0.0)
- name: Summary of Subjects with At Least One Related TEAE Leading to Death, by Treatment
  id: An07.06_RelTEAELd2Dth_ByTrt
  methodId: Mth01_CatVar_ByGrp
  version: 1
  analysisSetId: AnalysisSet_02_SAF
  orderedGroupings:
  - order: 1
    groupingId: AnlsGrouping_02_Trt
  dataSubsetId: Dss06_Rel_TEAE_Ld2Dth
  dataset: ADAE
  variable: USUBJID
  referencedAnalysisOperations:
  - analysisId: An07.06_RelTEAELd2Dth_ByTrt
    referencedOperationId: Mth01_CatVar_ByGrp_2_pct_NUM
  - analysisId: An01.05_SAF_ByTrt
    referencedOperationId: Mth01_CatVar_ByGrp_2_pct_DEN
  results:
  - operationId: Mth01_CatVar_ByGrp_1_n
    resultGroups:
    - groupingId: AnlsGrouping_02_Trt
      groupId: AnlsGrouping_02_Trt_1
    rawValue: '1'
    formattedValue: '1'
  - operationId: Mth01_CatVar_ByGrp_2_pct
    resultGroups:
    - groupingId: AnlsGrouping_02_Trt
      groupId: AnlsGrouping_02_Trt_1
    rawValue: '1.1627906976744187'
    formattedValue: (  1.2)
  - operationId: Mth01_CatVar_ByGrp_1_n
    resultGroups:
    - groupingId: AnlsGrouping_02_Trt
      groupId: AnlsGrouping_02_Trt_2
    rawValue: '0'
    formattedValue: '0'
  - operationId: Mth01_CatVar_ByGrp_2_pct
    resultGroups:
    - groupingId: AnlsGrouping_02_Trt
      groupId: AnlsGrouping_02_Trt_2
    rawValue: '0'
    formattedValue: (  0.0)
  - operationId: Mth01_CatVar_ByGrp_1_n
    resultGroups:
    - groupingId: AnlsGrouping_02_Trt
      groupId: AnlsGrouping_02_Trt_3
    rawValue: '0'
    formattedValue: '0'
  - operationId: Mth01_CatVar_ByGrp_2_pct
    resultGroups:
    - groupingId: AnlsGrouping_02_Trt
      groupId: AnlsGrouping_02_Trt_3
    rawValue: '0'
    formattedValue: (  0.0)
- name: Summary of Subjects with At Least One TEAE Leading to Dose Modification, by
    Treatment
  id: An07.07_TEAELd2DoseMod_ByTrt
  methodId: Mth01_CatVar_ByGrp
  version: 1
  analysisSetId: AnalysisSet_02_SAF
  orderedGroupings:
  - order: 1
    groupingId: AnlsGrouping_02_Trt
  dataSubsetId: Dss07_TEAE_Ld2DoseMod
  dataset: ADAE
  variable: USUBJID
  referencedAnalysisOperations:
  - analysisId: An07.07_TEAELd2DoseMod_ByTrt
    referencedOperationId: Mth01_CatVar_ByGrp_2_pct_NUM
  - analysisId: An01.05_SAF_ByTrt
    referencedOperationId: Mth01_CatVar_ByGrp_2_pct_DEN
  results:
  - operationId: Mth01_CatVar_ByGrp_1_n
    resultGroups:
    - groupingId: AnlsGrouping_02_Trt
      groupId: AnlsGrouping_02_Trt_1
    rawValue: '0'
    formattedValue: '0'
  - operationId: Mth01_CatVar_ByGrp_2_pct
    resultGroups:
    - groupingId: AnlsGrouping_02_Trt
      groupId: AnlsGrouping_02_Trt_1
    rawValue: '0'
    formattedValue: (  0.0)
  - operationId: Mth01_CatVar_ByGrp_1_n
    resultGroups:
    - groupingId: AnlsGrouping_02_Trt
      groupId: AnlsGrouping_02_Trt_2
    rawValue: '0'
    formattedValue: '0'
  - operationId: Mth01_CatVar_ByGrp_2_pct
    resultGroups:
    - groupingId: AnlsGrouping_02_Trt
      groupId: AnlsGrouping_02_Trt_2
    rawValue: '0'
    formattedValue: (  0.0)
  - operationId: Mth01_CatVar_ByGrp_1_n
    resultGroups:
    - groupingId: AnlsGrouping_02_Trt
      groupId: AnlsGrouping_02_Trt_3
    rawValue: '0'
    formattedValue: '0'
  - operationId: Mth01_CatVar_ByGrp_2_pct
    resultGroups:
    - groupingId: AnlsGrouping_02_Trt
      groupId: AnlsGrouping_02_Trt_3
    rawValue: '0'
    formattedValue: (  0.0)
- name: Summary of Subjects with At Least One TEAE Leading to Treatment Discontinuation,
    by Treatment
  id: An07.08_TEAELd2TrtDsc_ByTrt
  methodId: Mth01_CatVar_ByGrp
  version: 1
  analysisSetId: AnalysisSet_02_SAF
  orderedGroupings:
  - order: 1
    groupingId: AnlsGrouping_02_Trt
  dataSubsetId: Dss08_AE_Ld2TrtDsc
  dataset: ADAE
  variable: USUBJID
  referencedAnalysisOperations:
  - analysisId: An07.08_TEAELd2TrtDsc_ByTrt
    referencedOperationId: Mth01_CatVar_ByGrp_2_pct_NUM
  - analysisId: An01.05_SAF_ByTrt
    referencedOperationId: Mth01_CatVar_ByGrp_2_pct_DEN
  results:
  - operationId: Mth01_CatVar_ByGrp_1_n
    resultGroups:
    - groupingId: AnlsGrouping_02_Trt
      groupId: AnlsGrouping_02_Trt_1
    rawValue: '0'
    formattedValue: '0'
  - operationId: Mth01_CatVar_ByGrp_2_pct
    resultGroups:
    - groupingId: AnlsGrouping_02_Trt
      groupId: AnlsGrouping_02_Trt_1
    rawValue: '0'
    formattedValue: (  0.0)
  - operationId: Mth01_CatVar_ByGrp_1_n
    resultGroups:
    - groupingId: AnlsGrouping_02_Trt
      groupId: AnlsGrouping_02_Trt_2
    rawValue: '0'
    formattedValue: '0'
  - operationId: Mth01_CatVar_ByGrp_2_pct
    resultGroups:
    - groupingId: AnlsGrouping_02_Trt
      groupId: AnlsGrouping_02_Trt_2
    rawValue: '0'
    formattedValue: (  0.0)
  - operationId: Mth01_CatVar_ByGrp_1_n
    resultGroups:
    - groupingId: AnlsGrouping_02_Trt
      groupId: AnlsGrouping_02_Trt_3
    rawValue: '0'
    formattedValue: '0'
  - operationId: Mth01_CatVar_ByGrp_2_pct
    resultGroups:
    - groupingId: AnlsGrouping_02_Trt
      groupId: AnlsGrouping_02_Trt_3
    rawValue: '0'
    formattedValue: (  0.0)
- name: 'Summary of Subjects by Treatment and System Organ Class '
  id: An07.09_Soc_ByTrt
  methodId: Mth01_CatVar_ByGrp
  version: 1
  analysisSetId: AnalysisSet_02_SAF
  orderedGroupings:
  - order: 1
    groupingId: AnlsGrouping_02_Trt
  - order: 2
    dataGrouping:
      id: AnlsGrouping_06_Soc
      dataDriven: true
      label: System Organ Class
      groupingVariable: AESOC
  dataSubsetId: Dss01_TEAE
  dataset: ADAE
  variable: USUBJID
  referencedAnalysisOperations:
  - analysisId: An07.09_Soc_ByTrt
    referencedOperationId: Mth01_CatVar_ByGrp_2_pct_NUM
  - analysisId: An01.05_SAF_ByTrt
    referencedOperationId: Mth01_CatVar_ByGrp_2_pct_DEN
  results:
  - operationId: Mth01_CatVar_ByGrp_1_n
    resultGroups:
    - groupingId: AnlsGrouping_02_Trt
      groupId: AnlsGrouping_02_Trt_1
    - groupingId: AnlsGrouping_06_Soc
      groupValue: CARDIAC DISORDERS
    rawValue: '12'
    formattedValue: '12'
  - operationId: Mth01_CatVar_ByGrp_2_pct
    resultGroups:
    - groupingId: AnlsGrouping_02_Trt
      groupId: AnlsGrouping_02_Trt_1
    - groupingId: AnlsGrouping_06_Soc
      groupValue: CARDIAC DISORDERS
    rawValue: '13.9535'
    formattedValue: ( 14.0)
  - operationId: Mth01_CatVar_ByGrp_1_n
    resultGroups:
    - groupingId: AnlsGrouping_02_Trt
      groupId: AnlsGrouping_02_Trt_1
    - groupingId: AnlsGrouping_06_Soc
      groupValue: CONGENITAL, FAMILIAL AND GENETIC DISORDERS
    rawValue: '0'
    formattedValue: '0'
  - operationId: Mth01_CatVar_ByGrp_2_pct
    resultGroups:
    - groupingId: AnlsGrouping_02_Trt
      groupId: AnlsGrouping_02_Trt_1
    - groupingId: AnlsGrouping_06_Soc
      groupValue: CONGENITAL, FAMILIAL AND GENETIC DISORDERS
    rawValue: '0'
    formattedValue: (  0.0)
  - operationId: Mth01_CatVar_ByGrp_1_n
    resultGroups:
    - groupingId: AnlsGrouping_02_Trt
      groupId: AnlsGrouping_02_Trt_1
    - groupingId: AnlsGrouping_06_Soc
      groupValue: EAR AND LABYRINTH DISORDERS
    rawValue: '1'
    formattedValue: '1'
  - operationId: Mth01_CatVar_ByGrp_2_pct
    resultGroups:
    - groupingId: AnlsGrouping_02_Trt
      groupId: AnlsGrouping_02_Trt_1
    - groupingId: AnlsGrouping_06_Soc
      groupValue: EAR AND LABYRINTH DISORDERS
    rawValue: '1.1628'
    formattedValue: (  1.2)
  - operationId: Mth01_CatVar_ByGrp_1_n
    resultGroups:
    - groupingId: AnlsGrouping_02_Trt
      groupId: AnlsGrouping_02_Trt_1
    - groupingId: AnlsGrouping_06_Soc
      groupValue: EYE DISORDERS
    rawValue: '2'
    formattedValue: '2'
  - operationId: Mth01_CatVar_ByGrp_2_pct
    resultGroups:
    - groupingId: AnlsGrouping_02_Trt
      groupId: AnlsGrouping_02_Trt_1
    - groupingId: AnlsGrouping_06_Soc
      groupValue: EYE DISORDERS
    rawValue: '2.3256'
    formattedValue: (  2.3)
  - operationId: Mth01_CatVar_ByGrp_1_n
    resultGroups:
    - groupingId: AnlsGrouping_02_Trt
      groupId: AnlsGrouping_02_Trt_1
    - groupingId: AnlsGrouping_06_Soc
      groupValue: GASTROINTESTINAL DISORDERS
    rawValue: '17'
    formattedValue: '17'
  - operationId: Mth01_CatVar_ByGrp_2_pct
    resultGroups:
    - groupingId: AnlsGrouping_02_Trt
      groupId: AnlsGrouping_02_Trt_1
    - groupingId: AnlsGrouping_06_Soc
      groupValue: GASTROINTESTINAL DISORDERS
    rawValue: '19.7674'
    formattedValue: ( 19.8)
  - operationId: Mth01_CatVar_ByGrp_1_n
    resultGroups:
    - groupingId: AnlsGrouping_02_Trt
      groupId: AnlsGrouping_02_Trt_1
    - groupingId: AnlsGrouping_06_Soc
      groupValue: GENERAL DISORDERS AND ADMINISTRATION SITE CONDITIONS
    rawValue: '21'
    formattedValue: '21'
  - operationId: Mth01_CatVar_ByGrp_2_pct
    resultGroups:
    - groupingId: AnlsGrouping_02_Trt
      groupId: AnlsGrouping_02_Trt_1
    - groupingId: AnlsGrouping_06_Soc
      groupValue: GENERAL DISORDERS AND ADMINISTRATION SITE CONDITIONS
    rawValue: '24.4186'
    formattedValue: ( 24.4)
  - operationId: Mth01_CatVar_ByGrp_1_n
    resultGroups:
    - groupingId: AnlsGrouping_02_Trt
      groupId: AnlsGrouping_02_Trt_1
    - groupingId: AnlsGrouping_06_Soc
      groupValue: HEPATOBILIARY DISORDERS
    rawValue: '1'
    formattedValue: '1'
  - operationId: Mth01_CatVar_ByGrp_2_pct
    resultGroups:
    - groupingId: AnlsGrouping_02_Trt
      groupId: AnlsGrouping_02_Trt_1
    - groupingId: AnlsGrouping_06_Soc
      groupValue: HEPATOBILIARY DISORDERS
    rawValue: '1.1628'
    formattedValue: (  1.2)
  - operationId: Mth01_CatVar_ByGrp_1_n
    resultGroups:
    - groupingId: AnlsGrouping_02_Trt
      groupId: AnlsGrouping_02_Trt_1
    - groupingId: AnlsGrouping_06_Soc
      groupValue: IMMUNE SYSTEM DISORDERS
    rawValue: '0'
    formattedValue: '0'
  - operationId: Mth01_CatVar_ByGrp_2_pct
    resultGroups:
    - groupingId: AnlsGrouping_02_Trt
      groupId: AnlsGrouping_02_Trt_1
    - groupingId: AnlsGrouping_06_Soc
      groupValue: IMMUNE SYSTEM DISORDERS
    rawValue: '0'
    formattedValue: (  0.0)
  - operationId: Mth01_CatVar_ByGrp_1_n
    resultGroups:
    - groupingId: AnlsGrouping_02_Trt
      groupId: AnlsGrouping_02_Trt_1
    - groupingId: AnlsGrouping_06_Soc
      groupValue: INFECTIONS AND INFESTATIONS
    rawValue: '16'
    formattedValue: '16'
  - operationId: Mth01_CatVar_ByGrp_2_pct
    resultGroups:
    - groupingId: AnlsGrouping_02_Trt
      groupId: AnlsGrouping_02_Trt_1
    - groupingId: AnlsGrouping_06_Soc
      groupValue: INFECTIONS AND INFESTATIONS
    rawValue: '18.6047'
    formattedValue: ( 18.6)
  - operationId: Mth01_CatVar_ByGrp_1_n
    resultGroups:
    - groupingId: AnlsGrouping_02_Trt
      groupId: AnlsGrouping_02_Trt_1
    - groupingId: AnlsGrouping_06_Soc
      groupValue: INJURY, POISONING AND PROCEDURAL COMPLICATIONS
    rawValue: '4'
    formattedValue: '4'
  - operationId: Mth01_CatVar_ByGrp_2_pct
    resultGroups:
    - groupingId: AnlsGrouping_02_Trt
      groupId: AnlsGrouping_02_Trt_1
    - groupingId: AnlsGrouping_06_Soc
      groupValue: INJURY, POISONING AND PROCEDURAL COMPLICATIONS
    rawValue: '4.6512'
    formattedValue: (  4.7)
  - operationId: Mth01_CatVar_ByGrp_1_n
    resultGroups:
    - groupingId: AnlsGrouping_02_Trt
      groupId: AnlsGrouping_02_Trt_1
    - groupingId: AnlsGrouping_06_Soc
      groupValue: INVESTIGATIONS
    rawValue: '10'
    formattedValue: '10'
  - operationId: Mth01_CatVar_ByGrp_2_pct
    resultGroups:
    - groupingId: AnlsGrouping_02_Trt
      groupId: AnlsGrouping_02_Trt_1
    - groupingId: AnlsGrouping_06_Soc
      groupValue: INVESTIGATIONS
    rawValue: '11.6279'
    formattedValue: ( 11.6)
  - operationId: Mth01_CatVar_ByGrp_1_n
    resultGroups:
    - groupingId: AnlsGrouping_02_Trt
      groupId: AnlsGrouping_02_Trt_1
    - groupingId: AnlsGrouping_06_Soc
      groupValue: METABOLISM AND NUTRITION DISORDERS
    rawValue: '6'
    formattedValue: '6'
  - operationId: Mth01_CatVar_ByGrp_2_pct
    resultGroups:
    - groupingId: AnlsGrouping_02_Trt
      groupId: AnlsGrouping_02_Trt_1
    - groupingId: AnlsGrouping_06_Soc
      groupValue: METABOLISM AND NUTRITION DISORDERS
    rawValue: '6.9767'
    formattedValue: (  7.0)
  - operationId: Mth01_CatVar_ByGrp_1_n
    resultGroups:
    - groupingId: AnlsGrouping_02_Trt
      groupId: AnlsGrouping_02_Trt_1
    - groupingId: AnlsGrouping_06_Soc
      groupValue: MUSCULOSKELETAL AND CONNECTIVE TISSUE DISORDERS
    rawValue: '4'
    formattedValue: '4'
  - operationId: Mth01_CatVar_ByGrp_2_pct
    resultGroups:
    - groupingId: AnlsGrouping_02_Trt
      groupId: AnlsGrouping_02_Trt_1
    - groupingId: AnlsGrouping_06_Soc
      groupValue: MUSCULOSKELETAL AND CONNECTIVE TISSUE DISORDERS
    rawValue: '4.6512'
    formattedValue: (  4.7)
  - operationId: Mth01_CatVar_ByGrp_1_n
    resultGroups:
    - groupingId: AnlsGrouping_02_Trt
      groupId: AnlsGrouping_02_Trt_1
    - groupingId: AnlsGrouping_06_Soc
      groupValue: NEOPLASMS BENIGN, MALIGNANT AND UNSPECIFIED (INCL CYSTS AND POLYPS)
    rawValue: '0'
    formattedValue: '0'
  - operationId: Mth01_CatVar_ByGrp_2_pct
    resultGroups:
    - groupingId: AnlsGrouping_02_Trt
      groupId: AnlsGrouping_02_Trt_1
    - groupingId: AnlsGrouping_06_Soc
      groupValue: NEOPLASMS BENIGN, MALIGNANT AND UNSPECIFIED (INCL CYSTS AND POLYPS)
    rawValue: '0'
    formattedValue: (  0.0)
  - operationId: Mth01_CatVar_ByGrp_1_n
    resultGroups:
    - groupingId: AnlsGrouping_02_Trt
      groupId: AnlsGrouping_02_Trt_1
    - groupingId: AnlsGrouping_06_Soc
      groupValue: NERVOUS SYSTEM DISORDERS
    rawValue: '8'
    formattedValue: '8'
  - operationId: Mth01_CatVar_ByGrp_2_pct
    resultGroups:
    - groupingId: AnlsGrouping_02_Trt
      groupId: AnlsGrouping_02_Trt_1
    - groupingId: AnlsGrouping_06_Soc
      groupValue: NERVOUS SYSTEM DISORDERS
    rawValue: '9.3023'
    formattedValue: (  9.3)
  - operationId: Mth01_CatVar_ByGrp_1_n
    resultGroups:
    - groupingId: AnlsGrouping_02_Trt
      groupId: AnlsGrouping_02_Trt_1
    - groupingId: AnlsGrouping_06_Soc
      groupValue: PSYCHIATRIC DISORDERS
    rawValue: '10'
    formattedValue: '10'
  - operationId: Mth01_CatVar_ByGrp_2_pct
    resultGroups:
    - groupingId: AnlsGrouping_02_Trt
      groupId: AnlsGrouping_02_Trt_1
    - groupingId: AnlsGrouping_06_Soc
      groupValue: PSYCHIATRIC DISORDERS
    rawValue: '11.6279'
    formattedValue: ( 11.6)
  - operationId: Mth01_CatVar_ByGrp_1_n
    resultGroups:
    - groupingId: AnlsGrouping_02_Trt
      groupId: AnlsGrouping_02_Trt_1
    - groupingId: AnlsGrouping_06_Soc
      groupValue: RENAL AND URINARY DISORDERS
    rawValue: '4'
    formattedValue: '4'
  - operationId: Mth01_CatVar_ByGrp_2_pct
    resultGroups:
    - groupingId: AnlsGrouping_02_Trt
      groupId: AnlsGrouping_02_Trt_1
    - groupingId: AnlsGrouping_06_Soc
      groupValue: RENAL AND URINARY DISORDERS
    rawValue: '4.6512'
    formattedValue: (  4.7)
  - operationId: Mth01_CatVar_ByGrp_1_n
    resultGroups:
    - groupingId: AnlsGrouping_02_Trt
      groupId: AnlsGrouping_02_Trt_1
    - groupingId: AnlsGrouping_06_Soc
      groupValue: REPRODUCTIVE SYSTEM AND BREAST DISORDERS
    rawValue: '2'
    formattedValue: '2'
  - operationId: Mth01_CatVar_ByGrp_2_pct
    resultGroups:
    - groupingId: AnlsGrouping_02_Trt
      groupId: AnlsGrouping_02_Trt_1
    - groupingId: AnlsGrouping_06_Soc
      groupValue: REPRODUCTIVE SYSTEM AND BREAST DISORDERS
    rawValue: '2.3256'
    formattedValue: (  2.3)
  - operationId: Mth01_CatVar_ByGrp_1_n
    resultGroups:
    - groupingId: AnlsGrouping_02_Trt
      groupId: AnlsGrouping_02_Trt_1
    - groupingId: AnlsGrouping_06_Soc
      groupValue: RESPIRATORY, THORACIC AND MEDIASTINAL DISORDERS
    rawValue: '8'
    formattedValue: '8'
  - operationId: Mth01_CatVar_ByGrp_2_pct
    resultGroups:
    - groupingId: AnlsGrouping_02_Trt
      groupId: AnlsGrouping_02_Trt_1
    - groupingId: AnlsGrouping_06_Soc
      groupValue: RESPIRATORY, THORACIC AND MEDIASTINAL DISORDERS
    rawValue: '9.3023'
    formattedValue: (  9.3)
  - operationId: Mth01_CatVar_ByGrp_1_n
    resultGroups:
    - groupingId: AnlsGrouping_02_Trt
      groupId: AnlsGrouping_02_Trt_1
    - groupingId: AnlsGrouping_06_Soc
      groupValue: SKIN AND SUBCUTANEOUS TISSUE DISORDERS
    rawValue: '20'
    formattedValue: '20'
  - operationId: Mth01_CatVar_ByGrp_2_pct
    resultGroups:
    - groupingId: AnlsGrouping_02_Trt
      groupId: AnlsGrouping_02_Trt_1
    - groupingId: AnlsGrouping_06_Soc
      groupValue: SKIN AND SUBCUTANEOUS TISSUE DISORDERS
    rawValue: '23.2558'
    formattedValue: ( 23.3)
  - operationId: Mth01_CatVar_ByGrp_1_n
    resultGroups:
    - groupingId: AnlsGrouping_02_Trt
      groupId: AnlsGrouping_02_Trt_1
    - groupingId: AnlsGrouping_06_Soc
      groupValue: SOCIAL CIRCUMSTANCES
    rawValue: '0'
    formattedValue: '0'
  - operationId: Mth01_CatVar_ByGrp_2_pct
    resultGroups:
    - groupingId: AnlsGrouping_02_Trt
      groupId: AnlsGrouping_02_Trt_1
    - groupingId: AnlsGrouping_06_Soc
      groupValue: SOCIAL CIRCUMSTANCES
    rawValue: '0'
    formattedValue: (  0.0)
  - operationId: Mth01_CatVar_ByGrp_1_n
    resultGroups:
    - groupingId: AnlsGrouping_02_Trt
      groupId: AnlsGrouping_02_Trt_1
    - groupingId: AnlsGrouping_06_Soc
      groupValue: SURGICAL AND MEDICAL PROCEDURES
    rawValue: '2'
    formattedValue: '2'
  - operationId: Mth01_CatVar_ByGrp_2_pct
    resultGroups:
    - groupingId: AnlsGrouping_02_Trt
      groupId: AnlsGrouping_02_Trt_1
    - groupingId: AnlsGrouping_06_Soc
      groupValue: SURGICAL AND MEDICAL PROCEDURES
    rawValue: '2.3256'
    formattedValue: (  2.3)
  - operationId: Mth01_CatVar_ByGrp_1_n
    resultGroups:
    - groupingId: AnlsGrouping_02_Trt
      groupId: AnlsGrouping_02_Trt_1
    - groupingId: AnlsGrouping_06_Soc
      groupValue: VASCULAR DISORDERS
    rawValue: '3'
    formattedValue: '3'
  - operationId: Mth01_CatVar_ByGrp_2_pct
    resultGroups:
    - groupingId: AnlsGrouping_02_Trt
      groupId: AnlsGrouping_02_Trt_1
    - groupingId: AnlsGrouping_06_Soc
      groupValue: VASCULAR DISORDERS
    rawValue: '3.4884'
    formattedValue: (  3.5)
  - operationId: Mth01_CatVar_ByGrp_1_n
    resultGroups:
    - groupingId: AnlsGrouping_02_Trt
      groupId: AnlsGrouping_02_Trt_2
    - groupingId: AnlsGrouping_06_Soc
      groupValue: CARDIAC DISORDERS
    rawValue: '13'
    formattedValue: '13'
  - operationId: Mth01_CatVar_ByGrp_2_pct
    resultGroups:
    - groupingId: AnlsGrouping_02_Trt
      groupId: AnlsGrouping_02_Trt_2
    - groupingId: AnlsGrouping_06_Soc
      groupValue: CARDIAC DISORDERS
    rawValue: '15.4762'
    formattedValue: ( 15.5)
  - operationId: Mth01_CatVar_ByGrp_1_n
    resultGroups:
    - groupingId: AnlsGrouping_02_Trt
      groupId: AnlsGrouping_02_Trt_2
    - groupingId: AnlsGrouping_06_Soc
      groupValue: CONGENITAL, FAMILIAL AND GENETIC DISORDERS
    rawValue: '1'
    formattedValue: '1'
  - operationId: Mth01_CatVar_ByGrp_2_pct
    resultGroups:
    - groupingId: AnlsGrouping_02_Trt
      groupId: AnlsGrouping_02_Trt_2
    - groupingId: AnlsGrouping_06_Soc
      groupValue: CONGENITAL, FAMILIAL AND GENETIC DISORDERS
    rawValue: '1.1905'
    formattedValue: (  1.2)
  - operationId: Mth01_CatVar_ByGrp_1_n
    resultGroups:
    - groupingId: AnlsGrouping_02_Trt
      groupId: AnlsGrouping_02_Trt_2
    - groupingId: AnlsGrouping_06_Soc
      groupValue: EAR AND LABYRINTH DISORDERS
    rawValue: '2'
    formattedValue: '2'
  - operationId: Mth01_CatVar_ByGrp_2_pct
    resultGroups:
    - groupingId: AnlsGrouping_02_Trt
      groupId: AnlsGrouping_02_Trt_2
    - groupingId: AnlsGrouping_06_Soc
      groupValue: EAR AND LABYRINTH DISORDERS
    rawValue: '2.381'
    formattedValue: (  2.4)
  - operationId: Mth01_CatVar_ByGrp_1_n
    resultGroups:
    - groupingId: AnlsGrouping_02_Trt
      groupId: AnlsGrouping_02_Trt_2
    - groupingId: AnlsGrouping_06_Soc
      groupValue: EYE DISORDERS
    rawValue: '2'
    formattedValue: '2'
  - operationId: Mth01_CatVar_ByGrp_2_pct
    resultGroups:
    - groupingId: AnlsGrouping_02_Trt
      groupId: AnlsGrouping_02_Trt_2
    - groupingId: AnlsGrouping_06_Soc
      groupValue: EYE DISORDERS
    rawValue: '2.381'
    formattedValue: (  2.4)
  - operationId: Mth01_CatVar_ByGrp_1_n
    resultGroups:
    - groupingId: AnlsGrouping_02_Trt
      groupId: AnlsGrouping_02_Trt_2
    - groupingId: AnlsGrouping_06_Soc
      groupValue: GASTROINTESTINAL DISORDERS
    rawValue: '14'
    formattedValue: '14'
  - operationId: Mth01_CatVar_ByGrp_2_pct
    resultGroups:
    - groupingId: AnlsGrouping_02_Trt
      groupId: AnlsGrouping_02_Trt_2
    - groupingId: AnlsGrouping_06_Soc
      groupValue: GASTROINTESTINAL DISORDERS
    rawValue: '16.6667'
    formattedValue: ( 16.7)
  - operationId: Mth01_CatVar_ByGrp_1_n
    resultGroups:
    - groupingId: AnlsGrouping_02_Trt
      groupId: AnlsGrouping_02_Trt_2
    - groupingId: AnlsGrouping_06_Soc
      groupValue: GENERAL DISORDERS AND ADMINISTRATION SITE CONDITIONS
    rawValue: '47'
    formattedValue: '47'
  - operationId: Mth01_CatVar_ByGrp_2_pct
    resultGroups:
    - groupingId: AnlsGrouping_02_Trt
      groupId: AnlsGrouping_02_Trt_2
    - groupingId: AnlsGrouping_06_Soc
      groupValue: GENERAL DISORDERS AND ADMINISTRATION SITE CONDITIONS
    rawValue: '55.9524'
    formattedValue: ( 56.0)
  - operationId: Mth01_CatVar_ByGrp_1_n
    resultGroups:
    - groupingId: AnlsGrouping_02_Trt
      groupId: AnlsGrouping_02_Trt_2
    - groupingId: AnlsGrouping_06_Soc
      groupValue: HEPATOBILIARY DISORDERS
    rawValue: '0'
    formattedValue: '0'
  - operationId: Mth01_CatVar_ByGrp_2_pct
    resultGroups:
    - groupingId: AnlsGrouping_02_Trt
      groupId: AnlsGrouping_02_Trt_2
    - groupingId: AnlsGrouping_06_Soc
      groupValue: HEPATOBILIARY DISORDERS
    rawValue: '0'
    formattedValue: (  0.0)
  - operationId: Mth01_CatVar_ByGrp_1_n
    resultGroups:
    - groupingId: AnlsGrouping_02_Trt
      groupId: AnlsGrouping_02_Trt_2
    - groupingId: AnlsGrouping_06_Soc
      groupValue: IMMUNE SYSTEM DISORDERS
    rawValue: '1'
    formattedValue: '1'
  - operationId: Mth01_CatVar_ByGrp_2_pct
    resultGroups:
    - groupingId: AnlsGrouping_02_Trt
      groupId: AnlsGrouping_02_Trt_2
    - groupingId: AnlsGrouping_06_Soc
      groupValue: IMMUNE SYSTEM DISORDERS
    rawValue: '1.1905'
    formattedValue: (  1.2)
  - operationId: Mth01_CatVar_ByGrp_1_n
    resultGroups:
    - groupingId: AnlsGrouping_02_Trt
      groupId: AnlsGrouping_02_Trt_2
    - groupingId: AnlsGrouping_06_Soc
      groupValue: INFECTIONS AND INFESTATIONS
    rawValue: '9'
    formattedValue: '9'
  - operationId: Mth01_CatVar_ByGrp_2_pct
    resultGroups:
    - groupingId: AnlsGrouping_02_Trt
      groupId: AnlsGrouping_02_Trt_2
    - groupingId: AnlsGrouping_06_Soc
      groupValue: INFECTIONS AND INFESTATIONS
    rawValue: '10.7143'
    formattedValue: ( 10.7)
  - operationId: Mth01_CatVar_ByGrp_1_n
    resultGroups:
    - groupingId: AnlsGrouping_02_Trt
      groupId: AnlsGrouping_02_Trt_2
    - groupingId: AnlsGrouping_06_Soc
      groupValue: INJURY, POISONING AND PROCEDURAL COMPLICATIONS
    rawValue: '5'
    formattedValue: '5'
  - operationId: Mth01_CatVar_ByGrp_2_pct
    resultGroups:
    - groupingId: AnlsGrouping_02_Trt
      groupId: AnlsGrouping_02_Trt_2
    - groupingId: AnlsGrouping_06_Soc
      groupValue: INJURY, POISONING AND PROCEDURAL COMPLICATIONS
    rawValue: '5.9524'
    formattedValue: (  6.0)
  - operationId: Mth01_CatVar_ByGrp_1_n
    resultGroups:
    - groupingId: AnlsGrouping_02_Trt
      groupId: AnlsGrouping_02_Trt_2
    - groupingId: AnlsGrouping_06_Soc
      groupValue: INVESTIGATIONS
    rawValue: '6'
    formattedValue: '6'
  - operationId: Mth01_CatVar_ByGrp_2_pct
    resultGroups:
    - groupingId: AnlsGrouping_02_Trt
      groupId: AnlsGrouping_02_Trt_2
    - groupingId: AnlsGrouping_06_Soc
      groupValue: INVESTIGATIONS
    rawValue: '7.1429'
    formattedValue: (  7.1)
  - operationId: Mth01_CatVar_ByGrp_1_n
    resultGroups:
    - groupingId: AnlsGrouping_02_Trt
      groupId: AnlsGrouping_02_Trt_2
    - groupingId: AnlsGrouping_06_Soc
      groupValue: METABOLISM AND NUTRITION DISORDERS
    rawValue: '1'
    formattedValue: '1'
  - operationId: Mth01_CatVar_ByGrp_2_pct
    resultGroups:
    - groupingId: AnlsGrouping_02_Trt
      groupId: AnlsGrouping_02_Trt_2
    - groupingId: AnlsGrouping_06_Soc
      groupValue: METABOLISM AND NUTRITION DISORDERS
    rawValue: '1.1905'
    formattedValue: (  1.2)
  - operationId: Mth01_CatVar_ByGrp_1_n
    resultGroups:
    - groupingId: AnlsGrouping_02_Trt
      groupId: AnlsGrouping_02_Trt_2
    - groupingId: AnlsGrouping_06_Soc
      groupValue: MUSCULOSKELETAL AND CONNECTIVE TISSUE DISORDERS
    rawValue: '7'
    formattedValue: '7'
  - operationId: Mth01_CatVar_ByGrp_2_pct
    resultGroups:
    - groupingId: AnlsGrouping_02_Trt
      groupId: AnlsGrouping_02_Trt_2
    - groupingId: AnlsGrouping_06_Soc
      groupValue: MUSCULOSKELETAL AND CONNECTIVE TISSUE DISORDERS
    rawValue: '8.3333'
    formattedValue: (  8.3)
  - operationId: Mth01_CatVar_ByGrp_1_n
    resultGroups:
    - groupingId: AnlsGrouping_02_Trt
      groupId: AnlsGrouping_02_Trt_2
    - groupingId: AnlsGrouping_06_Soc
      groupValue: NEOPLASMS BENIGN, MALIGNANT AND UNSPECIFIED (INCL CYSTS AND POLYPS)
    rawValue: '2'
    formattedValue: '2'
  - operationId: Mth01_CatVar_ByGrp_2_pct
    resultGroups:
    - groupingId: AnlsGrouping_02_Trt
      groupId: AnlsGrouping_02_Trt_2
    - groupingId: AnlsGrouping_06_Soc
      groupValue: NEOPLASMS BENIGN, MALIGNANT AND UNSPECIFIED (INCL CYSTS AND POLYPS)
    rawValue: '2.381'
    formattedValue: (  2.4)
  - operationId: Mth01_CatVar_ByGrp_1_n
    resultGroups:
    - groupingId: AnlsGrouping_02_Trt
      groupId: AnlsGrouping_02_Trt_2
    - groupingId: AnlsGrouping_06_Soc
      groupValue: NERVOUS SYSTEM DISORDERS
    rawValue: '20'
    formattedValue: '20'
  - operationId: Mth01_CatVar_ByGrp_2_pct
    resultGroups:
    - groupingId: AnlsGrouping_02_Trt
      groupId: AnlsGrouping_02_Trt_2
    - groupingId: AnlsGrouping_06_Soc
      groupValue: NERVOUS SYSTEM DISORDERS
    rawValue: '23.8095'
    formattedValue: ( 23.8)
  - operationId: Mth01_CatVar_ByGrp_1_n
    resultGroups:
    - groupingId: AnlsGrouping_02_Trt
      groupId: AnlsGrouping_02_Trt_2
    - groupingId: AnlsGrouping_06_Soc
      groupValue: PSYCHIATRIC DISORDERS
    rawValue: '10'
    formattedValue: '10'
  - operationId: Mth01_CatVar_ByGrp_2_pct
    resultGroups:
    - groupingId: AnlsGrouping_02_Trt
      groupId: AnlsGrouping_02_Trt_2
    - groupingId: AnlsGrouping_06_Soc
      groupValue: PSYCHIATRIC DISORDERS
    rawValue: '11.9048'
    formattedValue: ( 11.9)
  - operationId: Mth01_CatVar_ByGrp_1_n
    resultGroups:
    - groupingId: AnlsGrouping_02_Trt
      groupId: AnlsGrouping_02_Trt_2
    - groupingId: AnlsGrouping_06_Soc
      groupValue: RENAL AND URINARY DISORDERS
    rawValue: '3'
    formattedValue: '3'
  - operationId: Mth01_CatVar_ByGrp_2_pct
    resultGroups:
    - groupingId: AnlsGrouping_02_Trt
      groupId: AnlsGrouping_02_Trt_2
    - groupingId: AnlsGrouping_06_Soc
      groupValue: RENAL AND URINARY DISORDERS
    rawValue: '3.5714'
    formattedValue: (  3.6)
  - operationId: Mth01_CatVar_ByGrp_1_n
    resultGroups:
    - groupingId: AnlsGrouping_02_Trt
      groupId: AnlsGrouping_02_Trt_2
    - groupingId: AnlsGrouping_06_Soc
      groupValue: REPRODUCTIVE SYSTEM AND BREAST DISORDERS
    rawValue: '0'
    formattedValue: '0'
  - operationId: Mth01_CatVar_ByGrp_2_pct
    resultGroups:
    - groupingId: AnlsGrouping_02_Trt
      groupId: AnlsGrouping_02_Trt_2
    - groupingId: AnlsGrouping_06_Soc
      groupValue: REPRODUCTIVE SYSTEM AND BREAST DISORDERS
    rawValue: '0'
    formattedValue: (  0.0)
  - operationId: Mth01_CatVar_ByGrp_1_n
    resultGroups:
    - groupingId: AnlsGrouping_02_Trt
      groupId: AnlsGrouping_02_Trt_2
    - groupingId: AnlsGrouping_06_Soc
      groupValue: RESPIRATORY, THORACIC AND MEDIASTINAL DISORDERS
    rawValue: '9'
    formattedValue: '9'
  - operationId: Mth01_CatVar_ByGrp_2_pct
    resultGroups:
    - groupingId: AnlsGrouping_02_Trt
      groupId: AnlsGrouping_02_Trt_2
    - groupingId: AnlsGrouping_06_Soc
      groupValue: RESPIRATORY, THORACIC AND MEDIASTINAL DISORDERS
    rawValue: '10.7143'
    formattedValue: ( 10.7)
  - operationId: Mth01_CatVar_ByGrp_1_n
    resultGroups:
    - groupingId: AnlsGrouping_02_Trt
      groupId: AnlsGrouping_02_Trt_2
    - groupingId: AnlsGrouping_06_Soc
      groupValue: SKIN AND SUBCUTANEOUS TISSUE DISORDERS
    rawValue: '39'
    formattedValue: '39'
  - operationId: Mth01_CatVar_ByGrp_2_pct
    resultGroups:
    - groupingId: AnlsGrouping_02_Trt
      groupId: AnlsGrouping_02_Trt_2
    - groupingId: AnlsGrouping_06_Soc
      groupValue: SKIN AND SUBCUTANEOUS TISSUE DISORDERS
    rawValue: '46.4286'
    formattedValue: ( 46.4)
  - operationId: Mth01_CatVar_ByGrp_1_n
    resultGroups:
    - groupingId: AnlsGrouping_02_Trt
      groupId: AnlsGrouping_02_Trt_2
    - groupingId: AnlsGrouping_06_Soc
      groupValue: SOCIAL CIRCUMSTANCES
    rawValue: '0'
    formattedValue: '0'
  - operationId: Mth01_CatVar_ByGrp_2_pct
    resultGroups:
    - groupingId: AnlsGrouping_02_Trt
      groupId: AnlsGrouping_02_Trt_2
    - groupingId: AnlsGrouping_06_Soc
      groupValue: SOCIAL CIRCUMSTANCES
    rawValue: '0'
    formattedValue: (  0.0)
  - operationId: Mth01_CatVar_ByGrp_1_n
    resultGroups:
    - groupingId: AnlsGrouping_02_Trt
      groupId: AnlsGrouping_02_Trt_2
    - groupingId: AnlsGrouping_06_Soc
      groupValue: SURGICAL AND MEDICAL PROCEDURES
    rawValue: '1'
    formattedValue: '1'
  - operationId: Mth01_CatVar_ByGrp_2_pct
    resultGroups:
    - groupingId: AnlsGrouping_02_Trt
      groupId: AnlsGrouping_02_Trt_2
    - groupingId: AnlsGrouping_06_Soc
      groupValue: SURGICAL AND MEDICAL PROCEDURES
    rawValue: '1.1905'
    formattedValue: (  1.2)
  - operationId: Mth01_CatVar_ByGrp_1_n
    resultGroups:
    - groupingId: AnlsGrouping_02_Trt
      groupId: AnlsGrouping_02_Trt_2
    - groupingId: AnlsGrouping_06_Soc
      groupValue: VASCULAR DISORDERS
    rawValue: '3'
    formattedValue: '3'
  - operationId: Mth01_CatVar_ByGrp_2_pct
    resultGroups:
    - groupingId: AnlsGrouping_02_Trt
      groupId: AnlsGrouping_02_Trt_2
    - groupingId: AnlsGrouping_06_Soc
      groupValue: VASCULAR DISORDERS
    rawValue: '3.5714'
    formattedValue: (  3.6)
  - operationId: Mth01_CatVar_ByGrp_1_n
    resultGroups:
    - groupingId: AnlsGrouping_02_Trt
      groupId: AnlsGrouping_02_Trt_3
    - groupingId: AnlsGrouping_06_Soc
      groupValue: CARDIAC DISORDERS
    rawValue: '15'
    formattedValue: '15'
  - operationId: Mth01_CatVar_ByGrp_2_pct
    resultGroups:
    - groupingId: AnlsGrouping_02_Trt
      groupId: AnlsGrouping_02_Trt_3
    - groupingId: AnlsGrouping_06_Soc
      groupValue: CARDIAC DISORDERS
    rawValue: '17.8571'
    formattedValue: ( 17.9)
  - operationId: Mth01_CatVar_ByGrp_1_n
    resultGroups:
    - groupingId: AnlsGrouping_02_Trt
      groupId: AnlsGrouping_02_Trt_3
    - groupingId: AnlsGrouping_06_Soc
      groupValue: CONGENITAL, FAMILIAL AND GENETIC DISORDERS
    rawValue: '2'
    formattedValue: '2'
  - operationId: Mth01_CatVar_ByGrp_2_pct
    resultGroups:
    - groupingId: AnlsGrouping_02_Trt
      groupId: AnlsGrouping_02_Trt_3
    - groupingId: AnlsGrouping_06_Soc
      groupValue: CONGENITAL, FAMILIAL AND GENETIC DISORDERS
    rawValue: '2.381'
    formattedValue: (  2.4)
  - operationId: Mth01_CatVar_ByGrp_1_n
    resultGroups:
    - groupingId: AnlsGrouping_02_Trt
      groupId: AnlsGrouping_02_Trt_3
    - groupingId: AnlsGrouping_06_Soc
      groupValue: EAR AND LABYRINTH DISORDERS
    rawValue: '1'
    formattedValue: '1'
  - operationId: Mth01_CatVar_ByGrp_2_pct
    resultGroups:
    - groupingId: AnlsGrouping_02_Trt
      groupId: AnlsGrouping_02_Trt_3
    - groupingId: AnlsGrouping_06_Soc
      groupValue: EAR AND LABYRINTH DISORDERS
    rawValue: '1.1905'
    formattedValue: (  1.2)
  - operationId: Mth01_CatVar_ByGrp_1_n
    resultGroups:
    - groupingId: AnlsGrouping_02_Trt
      groupId: AnlsGrouping_02_Trt_3
    - groupingId: AnlsGrouping_06_Soc
      groupValue: EYE DISORDERS
    rawValue: '1'
    formattedValue: '1'
  - operationId: Mth01_CatVar_ByGrp_2_pct
    resultGroups:
    - groupingId: AnlsGrouping_02_Trt
      groupId: AnlsGrouping_02_Trt_3
    - groupingId: AnlsGrouping_06_Soc
      groupValue: EYE DISORDERS
    rawValue: '1.1905'
    formattedValue: (  1.2)
  - operationId: Mth01_CatVar_ByGrp_1_n
    resultGroups:
    - groupingId: AnlsGrouping_02_Trt
      groupId: AnlsGrouping_02_Trt_3
    - groupingId: AnlsGrouping_06_Soc
      groupValue: GASTROINTESTINAL DISORDERS
    rawValue: '20'
    formattedValue: '20'
  - operationId: Mth01_CatVar_ByGrp_2_pct
    resultGroups:
    - groupingId: AnlsGrouping_02_Trt
      groupId: AnlsGrouping_02_Trt_3
    - groupingId: AnlsGrouping_06_Soc
      groupValue: GASTROINTESTINAL DISORDERS
    rawValue: '23.8095'
    formattedValue: ( 23.8)
  - operationId: Mth01_CatVar_ByGrp_1_n
    resultGroups:
    - groupingId: AnlsGrouping_02_Trt
      groupId: AnlsGrouping_02_Trt_3
    - groupingId: AnlsGrouping_06_Soc
      groupValue: GENERAL DISORDERS AND ADMINISTRATION SITE CONDITIONS
    rawValue: '40'
    formattedValue: '40'
  - operationId: Mth01_CatVar_ByGrp_2_pct
    resultGroups:
    - groupingId: AnlsGrouping_02_Trt
      groupId: AnlsGrouping_02_Trt_3
    - groupingId: AnlsGrouping_06_Soc
      groupValue: GENERAL DISORDERS AND ADMINISTRATION SITE CONDITIONS
    rawValue: '47.619'
    formattedValue: ( 47.6)
  - operationId: Mth01_CatVar_ByGrp_1_n
    resultGroups:
    - groupingId: AnlsGrouping_02_Trt
      groupId: AnlsGrouping_02_Trt_3
    - groupingId: AnlsGrouping_06_Soc
      groupValue: HEPATOBILIARY DISORDERS
    rawValue: '0'
    formattedValue: '0'
  - operationId: Mth01_CatVar_ByGrp_2_pct
    resultGroups:
    - groupingId: AnlsGrouping_02_Trt
      groupId: AnlsGrouping_02_Trt_3
    - groupingId: AnlsGrouping_06_Soc
      groupValue: HEPATOBILIARY DISORDERS
    rawValue: '0'
    formattedValue: (  0.0)
  - operationId: Mth01_CatVar_ByGrp_1_n
    resultGroups:
    - groupingId: AnlsGrouping_02_Trt
      groupId: AnlsGrouping_02_Trt_3
    - groupingId: AnlsGrouping_06_Soc
      groupValue: IMMUNE SYSTEM DISORDERS
    rawValue: '0'
    formattedValue: '0'
  - operationId: Mth01_CatVar_ByGrp_2_pct
    resultGroups:
    - groupingId: AnlsGrouping_02_Trt
      groupId: AnlsGrouping_02_Trt_3
    - groupingId: AnlsGrouping_06_Soc
      groupValue: IMMUNE SYSTEM DISORDERS
    rawValue: '0'
    formattedValue: (  0.0)
  - operationId: Mth01_CatVar_ByGrp_1_n
    resultGroups:
    - groupingId: AnlsGrouping_02_Trt
      groupId: AnlsGrouping_02_Trt_3
    - groupingId: AnlsGrouping_06_Soc
      groupValue: INFECTIONS AND INFESTATIONS
    rawValue: '13'
    formattedValue: '13'
  - operationId: Mth01_CatVar_ByGrp_2_pct
    resultGroups:
    - groupingId: AnlsGrouping_02_Trt
      groupId: AnlsGrouping_02_Trt_3
    - groupingId: AnlsGrouping_06_Soc
      groupValue: INFECTIONS AND INFESTATIONS
    rawValue: '15.4762'
    formattedValue: ( 15.5)
  - operationId: Mth01_CatVar_ByGrp_1_n
    resultGroups:
    - groupingId: AnlsGrouping_02_Trt
      groupId: AnlsGrouping_02_Trt_3
    - groupingId: AnlsGrouping_06_Soc
      groupValue: INJURY, POISONING AND PROCEDURAL COMPLICATIONS
    rawValue: '5'
    formattedValue: '5'
  - operationId: Mth01_CatVar_ByGrp_2_pct
    resultGroups:
    - groupingId: AnlsGrouping_02_Trt
      groupId: AnlsGrouping_02_Trt_3
    - groupingId: AnlsGrouping_06_Soc
      groupValue: INJURY, POISONING AND PROCEDURAL COMPLICATIONS
    rawValue: '5.9524'
    formattedValue: (  6.0)
  - operationId: Mth01_CatVar_ByGrp_1_n
    resultGroups:
    - groupingId: AnlsGrouping_02_Trt
      groupId: AnlsGrouping_02_Trt_3
    - groupingId: AnlsGrouping_06_Soc
      groupValue: INVESTIGATIONS
    rawValue: '6'
    formattedValue: '6'
  - operationId: Mth01_CatVar_ByGrp_2_pct
    resultGroups:
    - groupingId: AnlsGrouping_02_Trt
      groupId: AnlsGrouping_02_Trt_3
    - groupingId: AnlsGrouping_06_Soc
      groupValue: INVESTIGATIONS
    rawValue: '7.1429'
    formattedValue: (  7.1)
  - operationId: Mth01_CatVar_ByGrp_1_n
    resultGroups:
    - groupingId: AnlsGrouping_02_Trt
      groupId: AnlsGrouping_02_Trt_3
    - groupingId: AnlsGrouping_06_Soc
      groupValue: METABOLISM AND NUTRITION DISORDERS
    rawValue: '2'
    formattedValue: '2'
  - operationId: Mth01_CatVar_ByGrp_2_pct
    resultGroups:
    - groupingId: AnlsGrouping_02_Trt
      groupId: AnlsGrouping_02_Trt_3
    - groupingId: AnlsGrouping_06_Soc
      groupValue: METABOLISM AND NUTRITION DISORDERS
    rawValue: '2.381'
    formattedValue: (  2.4)
  - operationId: Mth01_CatVar_ByGrp_1_n
    resultGroups:
    - groupingId: AnlsGrouping_02_Trt
      groupId: AnlsGrouping_02_Trt_3
    - groupingId: AnlsGrouping_06_Soc
      groupValue: MUSCULOSKELETAL AND CONNECTIVE TISSUE DISORDERS
    rawValue: '7'
    formattedValue: '7'
  - operationId: Mth01_CatVar_ByGrp_2_pct
    resultGroups:
    - groupingId: AnlsGrouping_02_Trt
      groupId: AnlsGrouping_02_Trt_3
    - groupingId: AnlsGrouping_06_Soc
      groupValue: MUSCULOSKELETAL AND CONNECTIVE TISSUE DISORDERS
    rawValue: '8.3333'
    formattedValue: (  8.3)
  - operationId: Mth01_CatVar_ByGrp_1_n
    resultGroups:
    - groupingId: AnlsGrouping_02_Trt
      groupId: AnlsGrouping_02_Trt_3
    - groupingId: AnlsGrouping_06_Soc
      groupValue: NEOPLASMS BENIGN, MALIGNANT AND UNSPECIFIED (INCL CYSTS AND POLYPS)
    rawValue: '1'
    formattedValue: '1'
  - operationId: Mth01_CatVar_ByGrp_2_pct
    resultGroups:
    - groupingId: AnlsGrouping_02_Trt
      groupId: AnlsGrouping_02_Trt_3
    - groupingId: AnlsGrouping_06_Soc
      groupValue: NEOPLASMS BENIGN, MALIGNANT AND UNSPECIFIED (INCL CYSTS AND POLYPS)
    rawValue: '1.1905'
    formattedValue: (  1.2)
  - operationId: Mth01_CatVar_ByGrp_1_n
    resultGroups:
    - groupingId: AnlsGrouping_02_Trt
      groupId: AnlsGrouping_02_Trt_3
    - groupingId: AnlsGrouping_06_Soc
      groupValue: NERVOUS SYSTEM DISORDERS
    rawValue: '25'
    formattedValue: '25'
  - operationId: Mth01_CatVar_ByGrp_2_pct
    resultGroups:
    - groupingId: AnlsGrouping_02_Trt
      groupId: AnlsGrouping_02_Trt_3
    - groupingId: AnlsGrouping_06_Soc
      groupValue: NERVOUS SYSTEM DISORDERS
    rawValue: '29.7619'
    formattedValue: ( 29.8)
  - operationId: Mth01_CatVar_ByGrp_1_n
    resultGroups:
    - groupingId: AnlsGrouping_02_Trt
      groupId: AnlsGrouping_02_Trt_3
    - groupingId: AnlsGrouping_06_Soc
      groupValue: PSYCHIATRIC DISORDERS
    rawValue: '8'
    formattedValue: '8'
  - operationId: Mth01_CatVar_ByGrp_2_pct
    resultGroups:
    - groupingId: AnlsGrouping_02_Trt
      groupId: AnlsGrouping_02_Trt_3
    - groupingId: AnlsGrouping_06_Soc
      groupValue: PSYCHIATRIC DISORDERS
    rawValue: '9.5238'
    formattedValue: (  9.5)
  - operationId: Mth01_CatVar_ByGrp_1_n
    resultGroups:
    - groupingId: AnlsGrouping_02_Trt
      groupId: AnlsGrouping_02_Trt_3
    - groupingId: AnlsGrouping_06_Soc
      groupValue: RENAL AND URINARY DISORDERS
    rawValue: '3'
    formattedValue: '3'
  - operationId: Mth01_CatVar_ByGrp_2_pct
    resultGroups:
    - groupingId: AnlsGrouping_02_Trt
      groupId: AnlsGrouping_02_Trt_3
    - groupingId: AnlsGrouping_06_Soc
      groupValue: RENAL AND URINARY DISORDERS
    rawValue: '3.5714'
    formattedValue: (  3.6)
  - operationId: Mth01_CatVar_ByGrp_1_n
    resultGroups:
    - groupingId: AnlsGrouping_02_Trt
      groupId: AnlsGrouping_02_Trt_3
    - groupingId: AnlsGrouping_06_Soc
      groupValue: REPRODUCTIVE SYSTEM AND BREAST DISORDERS
    rawValue: '1'
    formattedValue: '1'
  - operationId: Mth01_CatVar_ByGrp_2_pct
    resultGroups:
    - groupingId: AnlsGrouping_02_Trt
      groupId: AnlsGrouping_02_Trt_3
    - groupingId: AnlsGrouping_06_Soc
      groupValue: REPRODUCTIVE SYSTEM AND BREAST DISORDERS
    rawValue: '1.1905'
    formattedValue: (  1.2)
  - operationId: Mth01_CatVar_ByGrp_1_n
    resultGroups:
    - groupingId: AnlsGrouping_02_Trt
      groupId: AnlsGrouping_02_Trt_3
    - groupingId: AnlsGrouping_06_Soc
      groupValue: RESPIRATORY, THORACIC AND MEDIASTINAL DISORDERS
    rawValue: '10'
    formattedValue: '10'
  - operationId: Mth01_CatVar_ByGrp_2_pct
    resultGroups:
    - groupingId: AnlsGrouping_02_Trt
      groupId: AnlsGrouping_02_Trt_3
    - groupingId: AnlsGrouping_06_Soc
      groupValue: RESPIRATORY, THORACIC AND MEDIASTINAL DISORDERS
    rawValue: '11.9048'
    formattedValue: ( 11.9)
  - operationId: Mth01_CatVar_ByGrp_1_n
    resultGroups:
    - groupingId: AnlsGrouping_02_Trt
      groupId: AnlsGrouping_02_Trt_3
    - groupingId: AnlsGrouping_06_Soc
      groupValue: SKIN AND SUBCUTANEOUS TISSUE DISORDERS
    rawValue: '40'
    formattedValue: '40'
  - operationId: Mth01_CatVar_ByGrp_2_pct
    resultGroups:
    - groupingId: AnlsGrouping_02_Trt
      groupId: AnlsGrouping_02_Trt_3
    - groupingId: AnlsGrouping_06_Soc
      groupValue: SKIN AND SUBCUTANEOUS TISSUE DISORDERS
    rawValue: '47.619'
    formattedValue: ( 47.6)
  - operationId: Mth01_CatVar_ByGrp_1_n
    resultGroups:
    - groupingId: AnlsGrouping_02_Trt
      groupId: AnlsGrouping_02_Trt_3
    - groupingId: AnlsGrouping_06_Soc
      groupValue: SOCIAL CIRCUMSTANCES
    rawValue: '1'
    formattedValue: '1'
  - operationId: Mth01_CatVar_ByGrp_2_pct
    resultGroups:
    - groupingId: AnlsGrouping_02_Trt
      groupId: AnlsGrouping_02_Trt_3
    - groupingId: AnlsGrouping_06_Soc
      groupValue: SOCIAL CIRCUMSTANCES
    rawValue: '1.1905'
    formattedValue: (  1.2)
  - operationId: Mth01_CatVar_ByGrp_1_n
    resultGroups:
    - groupingId: AnlsGrouping_02_Trt
      groupId: AnlsGrouping_02_Trt_3
    - groupingId: AnlsGrouping_06_Soc
      groupValue: SURGICAL AND MEDICAL PROCEDURES
    rawValue: '2'
    formattedValue: '2'
  - operationId: Mth01_CatVar_ByGrp_2_pct
    resultGroups:
    - groupingId: AnlsGrouping_02_Trt
      groupId: AnlsGrouping_02_Trt_3
    - groupingId: AnlsGrouping_06_Soc
      groupValue: SURGICAL AND MEDICAL PROCEDURES
    rawValue: '2.381'
    formattedValue: (  2.4)
  - operationId: Mth01_CatVar_ByGrp_1_n
    resultGroups:
    - groupingId: AnlsGrouping_02_Trt
      groupId: AnlsGrouping_02_Trt_3
    - groupingId: AnlsGrouping_06_Soc
      groupValue: VASCULAR DISORDERS
    rawValue: '1'
    formattedValue: '1'
  - operationId: Mth01_CatVar_ByGrp_2_pct
    resultGroups:
    - groupingId: AnlsGrouping_02_Trt
      groupId: AnlsGrouping_02_Trt_3
    - groupingId: AnlsGrouping_06_Soc
      groupValue: VASCULAR DISORDERS
    rawValue: '1.1905'
    formattedValue: (  1.2)
- name: 'Summary of Subjects by Treatment, System Organ Class and Preferred Term '
  id: An07.10_SocPt_ByTrt
  methodId: Mth01_CatVar_ByGrp
  version: 1
  analysisSetId: AnalysisSet_02_SAF
  orderedGroupings:
  - order: 1
    groupingId: AnlsGrouping_02_Trt
  - order: 2
    groupingId: AnlsGrouping_06_Soc
  - order: 3
    dataGrouping:
      id: AnlsGrouping_07_Pt
      dataDriven: true
      label: Preferred Term
      groupingVariable: AEDECOD
  dataSubsetId: Dss01_TEAE
  dataset: ADAE
  variable: USUBJID
  referencedAnalysisOperations:
  - analysisId: An07.10_SocPt_ByTrt
    referencedOperationId: Mth01_CatVar_ByGrp_2_pct_NUM
  - analysisId: An01.05_SAF_ByTrt
    referencedOperationId: Mth01_CatVar_ByGrp_2_pct_DEN
  results:
  - operationId: Mth01_CatVar_ByGrp_1_n
    resultGroups:
    - groupingId: AnlsGrouping_02_Trt
      groupId: AnlsGrouping_02_Trt_1
    - groupingId: AnlsGrouping_06_Soc
      groupValue: CARDIAC DISORDERS
    - groupingId: AnlsGrouping_07_Pt
      groupValue: ATRIAL FIBRILLATION
    rawValue: '1'
    formattedValue: '1'
  - operationId: Mth01_CatVar_ByGrp_2_pct
    resultGroups:
    - groupingId: AnlsGrouping_02_Trt
      groupId: AnlsGrouping_02_Trt_1
    - groupingId: AnlsGrouping_06_Soc
      groupValue: CARDIAC DISORDERS
    - groupingId: AnlsGrouping_07_Pt
      groupValue: ATRIAL FIBRILLATION
    rawValue: '1.1628'
    formattedValue: (  1.2)
  - operationId: Mth01_CatVar_ByGrp_1_n
    resultGroups:
    - groupingId: AnlsGrouping_02_Trt
      groupId: AnlsGrouping_02_Trt_1
    - groupingId: AnlsGrouping_06_Soc
      groupValue: CARDIAC DISORDERS
    - groupingId: AnlsGrouping_07_Pt
      groupValue: ATRIAL FLUTTER
    rawValue: '0'
    formattedValue: '0'
  - operationId: Mth01_CatVar_ByGrp_2_pct
    resultGroups:
    - groupingId: AnlsGrouping_02_Trt
      groupId: AnlsGrouping_02_Trt_1
    - groupingId: AnlsGrouping_06_Soc
      groupValue: CARDIAC DISORDERS
    - groupingId: AnlsGrouping_07_Pt
      groupValue: ATRIAL FLUTTER
    rawValue: '0'
    formattedValue: (  0.0)
  - operationId: Mth01_CatVar_ByGrp_1_n
    resultGroups:
    - groupingId: AnlsGrouping_02_Trt
      groupId: AnlsGrouping_02_Trt_1
    - groupingId: AnlsGrouping_06_Soc
      groupValue: CARDIAC DISORDERS
    - groupingId: AnlsGrouping_07_Pt
      groupValue: ATRIAL HYPERTROPHY
    rawValue: '1'
    formattedValue: '1'
  - operationId: Mth01_CatVar_ByGrp_2_pct
    resultGroups:
    - groupingId: AnlsGrouping_02_Trt
      groupId: AnlsGrouping_02_Trt_1
    - groupingId: AnlsGrouping_06_Soc
      groupValue: CARDIAC DISORDERS
    - groupingId: AnlsGrouping_07_Pt
      groupValue: ATRIAL HYPERTROPHY
    rawValue: '1.1628'
    formattedValue: (  1.2)
  - operationId: Mth01_CatVar_ByGrp_1_n
    resultGroups:
    - groupingId: AnlsGrouping_02_Trt
      groupId: AnlsGrouping_02_Trt_1
    - groupingId: AnlsGrouping_06_Soc
      groupValue: CARDIAC DISORDERS
    - groupingId: AnlsGrouping_07_Pt
      groupValue: ATRIOVENTRICULAR BLOCK FIRST DEGREE
    rawValue: '1'
    formattedValue: '1'
  - operationId: Mth01_CatVar_ByGrp_2_pct
    resultGroups:
    - groupingId: AnlsGrouping_02_Trt
      groupId: AnlsGrouping_02_Trt_1
    - groupingId: AnlsGrouping_06_Soc
      groupValue: CARDIAC DISORDERS
    - groupingId: AnlsGrouping_07_Pt
      groupValue: ATRIOVENTRICULAR BLOCK FIRST DEGREE
    rawValue: '1.1628'
    formattedValue: (  1.2)
  - operationId: Mth01_CatVar_ByGrp_1_n
    resultGroups:
    - groupingId: AnlsGrouping_02_Trt
      groupId: AnlsGrouping_02_Trt_1
    - groupingId: AnlsGrouping_06_Soc
      groupValue: CARDIAC DISORDERS
    - groupingId: AnlsGrouping_07_Pt
      groupValue: ATRIOVENTRICULAR BLOCK SECOND DEGREE
    rawValue: '1'
    formattedValue: '1'
  - operationId: Mth01_CatVar_ByGrp_2_pct
    resultGroups:
    - groupingId: AnlsGrouping_02_Trt
      groupId: AnlsGrouping_02_Trt_1
    - groupingId: AnlsGrouping_06_Soc
      groupValue: CARDIAC DISORDERS
    - groupingId: AnlsGrouping_07_Pt
      groupValue: ATRIOVENTRICULAR BLOCK SECOND DEGREE
    rawValue: '1.1628'
    formattedValue: (  1.2)
  - operationId: Mth01_CatVar_ByGrp_1_n
    resultGroups:
    - groupingId: AnlsGrouping_02_Trt
      groupId: AnlsGrouping_02_Trt_1
    - groupingId: AnlsGrouping_06_Soc
      groupValue: CARDIAC DISORDERS
    - groupingId: AnlsGrouping_07_Pt
      groupValue: BRADYCARDIA
    rawValue: '1'
    formattedValue: '1'
  - operationId: Mth01_CatVar_ByGrp_2_pct
    resultGroups:
    - groupingId: AnlsGrouping_02_Trt
      groupId: AnlsGrouping_02_Trt_1
    - groupingId: AnlsGrouping_06_Soc
      groupValue: CARDIAC DISORDERS
    - groupingId: AnlsGrouping_07_Pt
      groupValue: BRADYCARDIA
    rawValue: '1.1628'
    formattedValue: (  1.2)
  - operationId: Mth01_CatVar_ByGrp_1_n
    resultGroups:
    - groupingId: AnlsGrouping_02_Trt
      groupId: AnlsGrouping_02_Trt_1
    - groupingId: AnlsGrouping_06_Soc
      groupValue: CARDIAC DISORDERS
    - groupingId: AnlsGrouping_07_Pt
      groupValue: BUNDLE BRANCH BLOCK LEFT
    rawValue: '1'
    formattedValue: '1'
  - operationId: Mth01_CatVar_ByGrp_2_pct
    resultGroups:
    - groupingId: AnlsGrouping_02_Trt
      groupId: AnlsGrouping_02_Trt_1
    - groupingId: AnlsGrouping_06_Soc
      groupValue: CARDIAC DISORDERS
    - groupingId: AnlsGrouping_07_Pt
      groupValue: BUNDLE BRANCH BLOCK LEFT
    rawValue: '1.1628'
    formattedValue: (  1.2)
  - operationId: Mth01_CatVar_ByGrp_1_n
    resultGroups:
    - groupingId: AnlsGrouping_02_Trt
      groupId: AnlsGrouping_02_Trt_1
    - groupingId: AnlsGrouping_06_Soc
      groupValue: CARDIAC DISORDERS
    - groupingId: AnlsGrouping_07_Pt
      groupValue: BUNDLE BRANCH BLOCK RIGHT
    rawValue: '1'
    formattedValue: '1'
  - operationId: Mth01_CatVar_ByGrp_2_pct
    resultGroups:
    - groupingId: AnlsGrouping_02_Trt
      groupId: AnlsGrouping_02_Trt_1
    - groupingId: AnlsGrouping_06_Soc
      groupValue: CARDIAC DISORDERS
    - groupingId: AnlsGrouping_07_Pt
      groupValue: BUNDLE BRANCH BLOCK RIGHT
    rawValue: '1.1628'
    formattedValue: (  1.2)
  - operationId: Mth01_CatVar_ByGrp_1_n
    resultGroups:
    - groupingId: AnlsGrouping_02_Trt
      groupId: AnlsGrouping_02_Trt_1
    - groupingId: AnlsGrouping_06_Soc
      groupValue: CARDIAC DISORDERS
    - groupingId: AnlsGrouping_07_Pt
      groupValue: CARDIAC DISORDER
    rawValue: '0'
    formattedValue: '0'
  - operationId: Mth01_CatVar_ByGrp_2_pct
    resultGroups:
    - groupingId: AnlsGrouping_02_Trt
      groupId: AnlsGrouping_02_Trt_1
    - groupingId: AnlsGrouping_06_Soc
      groupValue: CARDIAC DISORDERS
    - groupingId: AnlsGrouping_07_Pt
      groupValue: CARDIAC DISORDER
    rawValue: '0'
    formattedValue: (  0.0)
  - operationId: Mth01_CatVar_ByGrp_1_n
    resultGroups:
    - groupingId: AnlsGrouping_02_Trt
      groupId: AnlsGrouping_02_Trt_1
    - groupingId: AnlsGrouping_06_Soc
      groupValue: CARDIAC DISORDERS
    - groupingId: AnlsGrouping_07_Pt
      groupValue: CARDIAC FAILURE CONGESTIVE
    rawValue: '1'
    formattedValue: '1'
  - operationId: Mth01_CatVar_ByGrp_2_pct
    resultGroups:
    - groupingId: AnlsGrouping_02_Trt
      groupId: AnlsGrouping_02_Trt_1
    - groupingId: AnlsGrouping_06_Soc
      groupValue: CARDIAC DISORDERS
    - groupingId: AnlsGrouping_07_Pt
      groupValue: CARDIAC FAILURE CONGESTIVE
    rawValue: '1.1628'
    formattedValue: (  1.2)
  - operationId: Mth01_CatVar_ByGrp_1_n
    resultGroups:
    - groupingId: AnlsGrouping_02_Trt
      groupId: AnlsGrouping_02_Trt_1
    - groupingId: AnlsGrouping_06_Soc
      groupValue: CARDIAC DISORDERS
    - groupingId: AnlsGrouping_07_Pt
      groupValue: MYOCARDIAL INFARCTION
    rawValue: '4'
    formattedValue: '4'
  - operationId: Mth01_CatVar_ByGrp_2_pct
    resultGroups:
    - groupingId: AnlsGrouping_02_Trt
      groupId: AnlsGrouping_02_Trt_1
    - groupingId: AnlsGrouping_06_Soc
      groupValue: CARDIAC DISORDERS
    - groupingId: AnlsGrouping_07_Pt
      groupValue: MYOCARDIAL INFARCTION
    rawValue: '4.6512'
    formattedValue: (  4.7)
  - operationId: Mth01_CatVar_ByGrp_1_n
    resultGroups:
    - groupingId: AnlsGrouping_02_Trt
      groupId: AnlsGrouping_02_Trt_1
    - groupingId: AnlsGrouping_06_Soc
      groupValue: CARDIAC DISORDERS
    - groupingId: AnlsGrouping_07_Pt
      groupValue: PALPITATIONS
    rawValue: '0'
    formattedValue: '0'
  - operationId: Mth01_CatVar_ByGrp_2_pct
    resultGroups:
    - groupingId: AnlsGrouping_02_Trt
      groupId: AnlsGrouping_02_Trt_1
    - groupingId: AnlsGrouping_06_Soc
      groupValue: CARDIAC DISORDERS
    - groupingId: AnlsGrouping_07_Pt
      groupValue: PALPITATIONS
    rawValue: '0'
    formattedValue: (  0.0)
  - operationId: Mth01_CatVar_ByGrp_1_n
    resultGroups:
    - groupingId: AnlsGrouping_02_Trt
      groupId: AnlsGrouping_02_Trt_1
    - groupingId: AnlsGrouping_06_Soc
      groupValue: CARDIAC DISORDERS
    - groupingId: AnlsGrouping_07_Pt
      groupValue: SINUS ARRHYTHMIA
    rawValue: '1'
    formattedValue: '1'
  - operationId: Mth01_CatVar_ByGrp_2_pct
    resultGroups:
    - groupingId: AnlsGrouping_02_Trt
      groupId: AnlsGrouping_02_Trt_1
    - groupingId: AnlsGrouping_06_Soc
      groupValue: CARDIAC DISORDERS
    - groupingId: AnlsGrouping_07_Pt
      groupValue: SINUS ARRHYTHMIA
    rawValue: '1.1628'
    formattedValue: (  1.2)
  - operationId: Mth01_CatVar_ByGrp_1_n
    resultGroups:
    - groupingId: AnlsGrouping_02_Trt
      groupId: AnlsGrouping_02_Trt_1
    - groupingId: AnlsGrouping_06_Soc
      groupValue: CARDIAC DISORDERS
    - groupingId: AnlsGrouping_07_Pt
      groupValue: SINUS BRADYCARDIA
    rawValue: '2'
    formattedValue: '2'
  - operationId: Mth01_CatVar_ByGrp_2_pct
    resultGroups:
    - groupingId: AnlsGrouping_02_Trt
      groupId: AnlsGrouping_02_Trt_1
    - groupingId: AnlsGrouping_06_Soc
      groupValue: CARDIAC DISORDERS
    - groupingId: AnlsGrouping_07_Pt
      groupValue: SINUS BRADYCARDIA
    rawValue: '2.3256'
    formattedValue: (  2.3)
  - operationId: Mth01_CatVar_ByGrp_1_n
    resultGroups:
    - groupingId: AnlsGrouping_02_Trt
      groupId: AnlsGrouping_02_Trt_1
    - groupingId: AnlsGrouping_06_Soc
      groupValue: CARDIAC DISORDERS
    - groupingId: AnlsGrouping_07_Pt
      groupValue: SUPRAVENTRICULAR EXTRASYSTOLES
    rawValue: '1'
    formattedValue: '1'
  - operationId: Mth01_CatVar_ByGrp_2_pct
    resultGroups:
    - groupingId: AnlsGrouping_02_Trt
      groupId: AnlsGrouping_02_Trt_1
    - groupingId: AnlsGrouping_06_Soc
      groupValue: CARDIAC DISORDERS
    - groupingId: AnlsGrouping_07_Pt
      groupValue: SUPRAVENTRICULAR EXTRASYSTOLES
    rawValue: '1.1628'
    formattedValue: (  1.2)
  - operationId: Mth01_CatVar_ByGrp_1_n
    resultGroups:
    - groupingId: AnlsGrouping_02_Trt
      groupId: AnlsGrouping_02_Trt_1
    - groupingId: AnlsGrouping_06_Soc
      groupValue: CARDIAC DISORDERS
    - groupingId: AnlsGrouping_07_Pt
      groupValue: SUPRAVENTRICULAR TACHYCARDIA
    rawValue: '0'
    formattedValue: '0'
  - operationId: Mth01_CatVar_ByGrp_2_pct
    resultGroups:
    - groupingId: AnlsGrouping_02_Trt
      groupId: AnlsGrouping_02_Trt_1
    - groupingId: AnlsGrouping_06_Soc
      groupValue: CARDIAC DISORDERS
    - groupingId: AnlsGrouping_07_Pt
      groupValue: SUPRAVENTRICULAR TACHYCARDIA
    rawValue: '0'
    formattedValue: (  0.0)
  - operationId: Mth01_CatVar_ByGrp_1_n
    resultGroups:
    - groupingId: AnlsGrouping_02_Trt
      groupId: AnlsGrouping_02_Trt_1
    - groupingId: AnlsGrouping_06_Soc
      groupValue: CARDIAC DISORDERS
    - groupingId: AnlsGrouping_07_Pt
      groupValue: TACHYCARDIA
    rawValue: '1'
    formattedValue: '1'
  - operationId: Mth01_CatVar_ByGrp_2_pct
    resultGroups:
    - groupingId: AnlsGrouping_02_Trt
      groupId: AnlsGrouping_02_Trt_1
    - groupingId: AnlsGrouping_06_Soc
      groupValue: CARDIAC DISORDERS
    - groupingId: AnlsGrouping_07_Pt
      groupValue: TACHYCARDIA
    rawValue: '1.1628'
    formattedValue: (  1.2)
  - operationId: Mth01_CatVar_ByGrp_1_n
    resultGroups:
    - groupingId: AnlsGrouping_02_Trt
      groupId: AnlsGrouping_02_Trt_1
    - groupingId: AnlsGrouping_06_Soc
      groupValue: CARDIAC DISORDERS
    - groupingId: AnlsGrouping_07_Pt
      groupValue: VENTRICULAR EXTRASYSTOLES
    rawValue: '0'
    formattedValue: '0'
  - operationId: Mth01_CatVar_ByGrp_2_pct
    resultGroups:
    - groupingId: AnlsGrouping_02_Trt
      groupId: AnlsGrouping_02_Trt_1
    - groupingId: AnlsGrouping_06_Soc
      groupValue: CARDIAC DISORDERS
    - groupingId: AnlsGrouping_07_Pt
      groupValue: VENTRICULAR EXTRASYSTOLES
    rawValue: '0'
    formattedValue: (  0.0)
  - operationId: Mth01_CatVar_ByGrp_1_n
    resultGroups:
    - groupingId: AnlsGrouping_02_Trt
      groupId: AnlsGrouping_02_Trt_1
    - groupingId: AnlsGrouping_06_Soc
      groupValue: CARDIAC DISORDERS
    - groupingId: AnlsGrouping_07_Pt
      groupValue: VENTRICULAR HYPERTROPHY
    rawValue: '1'
    formattedValue: '1'
  - operationId: Mth01_CatVar_ByGrp_2_pct
    resultGroups:
    - groupingId: AnlsGrouping_02_Trt
      groupId: AnlsGrouping_02_Trt_1
    - groupingId: AnlsGrouping_06_Soc
      groupValue: CARDIAC DISORDERS
    - groupingId: AnlsGrouping_07_Pt
      groupValue: VENTRICULAR HYPERTROPHY
    rawValue: '1.1628'
    formattedValue: (  1.2)
  - operationId: Mth01_CatVar_ByGrp_1_n
    resultGroups:
    - groupingId: AnlsGrouping_02_Trt
      groupId: AnlsGrouping_02_Trt_1
    - groupingId: AnlsGrouping_06_Soc
      groupValue: CARDIAC DISORDERS
    - groupingId: AnlsGrouping_07_Pt
      groupValue: WOLFF-PARKINSON-WHITE SYNDROME
    rawValue: '0'
    formattedValue: '0'
  - operationId: Mth01_CatVar_ByGrp_2_pct
    resultGroups:
    - groupingId: AnlsGrouping_02_Trt
      groupId: AnlsGrouping_02_Trt_1
    - groupingId: AnlsGrouping_06_Soc
      groupValue: CARDIAC DISORDERS
    - groupingId: AnlsGrouping_07_Pt
      groupValue: WOLFF-PARKINSON-WHITE SYNDROME
    rawValue: '0'
    formattedValue: (  0.0)
  - operationId: Mth01_CatVar_ByGrp_1_n
    resultGroups:
    - groupingId: AnlsGrouping_02_Trt
      groupId: AnlsGrouping_02_Trt_1
    - groupingId: AnlsGrouping_06_Soc
      groupValue: CONGENITAL, FAMILIAL AND GENETIC DISORDERS
    - groupingId: AnlsGrouping_07_Pt
      groupValue: VENTRICULAR SEPTAL DEFECT
    rawValue: '0'
    formattedValue: '0'
  - operationId: Mth01_CatVar_ByGrp_2_pct
    resultGroups:
    - groupingId: AnlsGrouping_02_Trt
      groupId: AnlsGrouping_02_Trt_1
    - groupingId: AnlsGrouping_06_Soc
      groupValue: CONGENITAL, FAMILIAL AND GENETIC DISORDERS
    - groupingId: AnlsGrouping_07_Pt
      groupValue: VENTRICULAR SEPTAL DEFECT
    rawValue: '0'
    formattedValue: (  0.0)
  - operationId: Mth01_CatVar_ByGrp_1_n
    resultGroups:
    - groupingId: AnlsGrouping_02_Trt
      groupId: AnlsGrouping_02_Trt_1
    - groupingId: AnlsGrouping_06_Soc
      groupValue: EAR AND LABYRINTH DISORDERS
    - groupingId: AnlsGrouping_07_Pt
      groupValue: CERUMEN IMPACTION
    rawValue: '0'
    formattedValue: '0'
  - operationId: Mth01_CatVar_ByGrp_2_pct
    resultGroups:
    - groupingId: AnlsGrouping_02_Trt
      groupId: AnlsGrouping_02_Trt_1
    - groupingId: AnlsGrouping_06_Soc
      groupValue: EAR AND LABYRINTH DISORDERS
    - groupingId: AnlsGrouping_07_Pt
      groupValue: CERUMEN IMPACTION
    rawValue: '0'
    formattedValue: (  0.0)
  - operationId: Mth01_CatVar_ByGrp_1_n
    resultGroups:
    - groupingId: AnlsGrouping_02_Trt
      groupId: AnlsGrouping_02_Trt_1
    - groupingId: AnlsGrouping_06_Soc
      groupValue: EAR AND LABYRINTH DISORDERS
    - groupingId: AnlsGrouping_07_Pt
      groupValue: EAR PAIN
    rawValue: '1'
    formattedValue: '1'
  - operationId: Mth01_CatVar_ByGrp_2_pct
    resultGroups:
    - groupingId: AnlsGrouping_02_Trt
      groupId: AnlsGrouping_02_Trt_1
    - groupingId: AnlsGrouping_06_Soc
      groupValue: EAR AND LABYRINTH DISORDERS
    - groupingId: AnlsGrouping_07_Pt
      groupValue: EAR PAIN
    rawValue: '1.1628'
    formattedValue: (  1.2)
  - operationId: Mth01_CatVar_ByGrp_1_n
    resultGroups:
    - groupingId: AnlsGrouping_02_Trt
      groupId: AnlsGrouping_02_Trt_1
    - groupingId: AnlsGrouping_06_Soc
      groupValue: EAR AND LABYRINTH DISORDERS
    - groupingId: AnlsGrouping_07_Pt
      groupValue: VERTIGO
    rawValue: '0'
    formattedValue: '0'
  - operationId: Mth01_CatVar_ByGrp_2_pct
    resultGroups:
    - groupingId: AnlsGrouping_02_Trt
      groupId: AnlsGrouping_02_Trt_1
    - groupingId: AnlsGrouping_06_Soc
      groupValue: EAR AND LABYRINTH DISORDERS
    - groupingId: AnlsGrouping_07_Pt
      groupValue: VERTIGO
    rawValue: '0'
    formattedValue: (  0.0)
  - operationId: Mth01_CatVar_ByGrp_1_n
    resultGroups:
    - groupingId: AnlsGrouping_02_Trt
      groupId: AnlsGrouping_02_Trt_1
    - groupingId: AnlsGrouping_06_Soc
      groupValue: EYE DISORDERS
    - groupingId: AnlsGrouping_07_Pt
      groupValue: CONJUNCTIVAL HAEMORRHAGE
    rawValue: '0'
    formattedValue: '0'
  - operationId: Mth01_CatVar_ByGrp_2_pct
    resultGroups:
    - groupingId: AnlsGrouping_02_Trt
      groupId: AnlsGrouping_02_Trt_1
    - groupingId: AnlsGrouping_06_Soc
      groupValue: EYE DISORDERS
    - groupingId: AnlsGrouping_07_Pt
      groupValue: CONJUNCTIVAL HAEMORRHAGE
    rawValue: '0'
    formattedValue: (  0.0)
  - operationId: Mth01_CatVar_ByGrp_1_n
    resultGroups:
    - groupingId: AnlsGrouping_02_Trt
      groupId: AnlsGrouping_02_Trt_1
    - groupingId: AnlsGrouping_06_Soc
      groupValue: EYE DISORDERS
    - groupingId: AnlsGrouping_07_Pt
      groupValue: CONJUNCTIVITIS
    rawValue: '1'
    formattedValue: '1'
  - operationId: Mth01_CatVar_ByGrp_2_pct
    resultGroups:
    - groupingId: AnlsGrouping_02_Trt
      groupId: AnlsGrouping_02_Trt_1
    - groupingId: AnlsGrouping_06_Soc
      groupValue: EYE DISORDERS
    - groupingId: AnlsGrouping_07_Pt
      groupValue: CONJUNCTIVITIS
    rawValue: '1.1628'
    formattedValue: (  1.2)
  - operationId: Mth01_CatVar_ByGrp_1_n
    resultGroups:
    - groupingId: AnlsGrouping_02_Trt
      groupId: AnlsGrouping_02_Trt_1
    - groupingId: AnlsGrouping_06_Soc
      groupValue: EYE DISORDERS
    - groupingId: AnlsGrouping_07_Pt
      groupValue: EYE ALLERGY
    rawValue: '1'
    formattedValue: '1'
  - operationId: Mth01_CatVar_ByGrp_2_pct
    resultGroups:
    - groupingId: AnlsGrouping_02_Trt
      groupId: AnlsGrouping_02_Trt_1
    - groupingId: AnlsGrouping_06_Soc
      groupValue: EYE DISORDERS
    - groupingId: AnlsGrouping_07_Pt
      groupValue: EYE ALLERGY
    rawValue: '1.1628'
    formattedValue: (  1.2)
  - operationId: Mth01_CatVar_ByGrp_1_n
    resultGroups:
    - groupingId: AnlsGrouping_02_Trt
      groupId: AnlsGrouping_02_Trt_1
    - groupingId: AnlsGrouping_06_Soc
      groupValue: EYE DISORDERS
    - groupingId: AnlsGrouping_07_Pt
      groupValue: EYE PRURITUS
    rawValue: '1'
    formattedValue: '1'
  - operationId: Mth01_CatVar_ByGrp_2_pct
    resultGroups:
    - groupingId: AnlsGrouping_02_Trt
      groupId: AnlsGrouping_02_Trt_1
    - groupingId: AnlsGrouping_06_Soc
      groupValue: EYE DISORDERS
    - groupingId: AnlsGrouping_07_Pt
      groupValue: EYE PRURITUS
    rawValue: '1.1628'
    formattedValue: (  1.2)
  - operationId: Mth01_CatVar_ByGrp_1_n
    resultGroups:
    - groupingId: AnlsGrouping_02_Trt
      groupId: AnlsGrouping_02_Trt_1
    - groupingId: AnlsGrouping_06_Soc
      groupValue: EYE DISORDERS
    - groupingId: AnlsGrouping_07_Pt
      groupValue: EYE SWELLING
    rawValue: '1'
    formattedValue: '1'
  - operationId: Mth01_CatVar_ByGrp_2_pct
    resultGroups:
    - groupingId: AnlsGrouping_02_Trt
      groupId: AnlsGrouping_02_Trt_1
    - groupingId: AnlsGrouping_06_Soc
      groupValue: EYE DISORDERS
    - groupingId: AnlsGrouping_07_Pt
      groupValue: EYE SWELLING
    rawValue: '1.1628'
    formattedValue: (  1.2)
  - operationId: Mth01_CatVar_ByGrp_1_n
    resultGroups:
    - groupingId: AnlsGrouping_02_Trt
      groupId: AnlsGrouping_02_Trt_1
    - groupingId: AnlsGrouping_06_Soc
      groupValue: EYE DISORDERS
    - groupingId: AnlsGrouping_07_Pt
      groupValue: VISION BLURRED
    rawValue: '0'
    formattedValue: '0'
  - operationId: Mth01_CatVar_ByGrp_2_pct
    resultGroups:
    - groupingId: AnlsGrouping_02_Trt
      groupId: AnlsGrouping_02_Trt_1
    - groupingId: AnlsGrouping_06_Soc
      groupValue: EYE DISORDERS
    - groupingId: AnlsGrouping_07_Pt
      groupValue: VISION BLURRED
    rawValue: '0'
    formattedValue: (  0.0)
  - operationId: Mth01_CatVar_ByGrp_1_n
    resultGroups:
    - groupingId: AnlsGrouping_02_Trt
      groupId: AnlsGrouping_02_Trt_1
    - groupingId: AnlsGrouping_06_Soc
      groupValue: GASTROINTESTINAL DISORDERS
    - groupingId: AnlsGrouping_07_Pt
      groupValue: ABDOMINAL DISCOMFORT
    rawValue: '0'
    formattedValue: '0'
  - operationId: Mth01_CatVar_ByGrp_2_pct
    resultGroups:
    - groupingId: AnlsGrouping_02_Trt
      groupId: AnlsGrouping_02_Trt_1
    - groupingId: AnlsGrouping_06_Soc
      groupValue: GASTROINTESTINAL DISORDERS
    - groupingId: AnlsGrouping_07_Pt
      groupValue: ABDOMINAL DISCOMFORT
    rawValue: '0'
    formattedValue: (  0.0)
  - operationId: Mth01_CatVar_ByGrp_1_n
    resultGroups:
    - groupingId: AnlsGrouping_02_Trt
      groupId: AnlsGrouping_02_Trt_1
    - groupingId: AnlsGrouping_06_Soc
      groupValue: GASTROINTESTINAL DISORDERS
    - groupingId: AnlsGrouping_07_Pt
      groupValue: ABDOMINAL PAIN
    rawValue: '1'
    formattedValue: '1'
  - operationId: Mth01_CatVar_ByGrp_2_pct
    resultGroups:
    - groupingId: AnlsGrouping_02_Trt
      groupId: AnlsGrouping_02_Trt_1
    - groupingId: AnlsGrouping_06_Soc
      groupValue: GASTROINTESTINAL DISORDERS
    - groupingId: AnlsGrouping_07_Pt
      groupValue: ABDOMINAL PAIN
    rawValue: '1.1628'
    formattedValue: (  1.2)
  - operationId: Mth01_CatVar_ByGrp_1_n
    resultGroups:
    - groupingId: AnlsGrouping_02_Trt
      groupId: AnlsGrouping_02_Trt_1
    - groupingId: AnlsGrouping_06_Soc
      groupValue: GASTROINTESTINAL DISORDERS
    - groupingId: AnlsGrouping_07_Pt
      groupValue: CONSTIPATION
    rawValue: '1'
    formattedValue: '1'
  - operationId: Mth01_CatVar_ByGrp_2_pct
    resultGroups:
    - groupingId: AnlsGrouping_02_Trt
      groupId: AnlsGrouping_02_Trt_1
    - groupingId: AnlsGrouping_06_Soc
      groupValue: GASTROINTESTINAL DISORDERS
    - groupingId: AnlsGrouping_07_Pt
      groupValue: CONSTIPATION
    rawValue: '1.1628'
    formattedValue: (  1.2)
  - operationId: Mth01_CatVar_ByGrp_1_n
    resultGroups:
    - groupingId: AnlsGrouping_02_Trt
      groupId: AnlsGrouping_02_Trt_1
    - groupingId: AnlsGrouping_06_Soc
      groupValue: GASTROINTESTINAL DISORDERS
    - groupingId: AnlsGrouping_07_Pt
      groupValue: DIARRHOEA
    rawValue: '9'
    formattedValue: '9'
  - operationId: Mth01_CatVar_ByGrp_2_pct
    resultGroups:
    - groupingId: AnlsGrouping_02_Trt
      groupId: AnlsGrouping_02_Trt_1
    - groupingId: AnlsGrouping_06_Soc
      groupValue: GASTROINTESTINAL DISORDERS
    - groupingId: AnlsGrouping_07_Pt
      groupValue: DIARRHOEA
    rawValue: '10.4651'
    formattedValue: ( 10.5)
  - operationId: Mth01_CatVar_ByGrp_1_n
    resultGroups:
    - groupingId: AnlsGrouping_02_Trt
      groupId: AnlsGrouping_02_Trt_1
    - groupingId: AnlsGrouping_06_Soc
      groupValue: GASTROINTESTINAL DISORDERS
    - groupingId: AnlsGrouping_07_Pt
      groupValue: DYSPEPSIA
    rawValue: '1'
    formattedValue: '1'
  - operationId: Mth01_CatVar_ByGrp_2_pct
    resultGroups:
    - groupingId: AnlsGrouping_02_Trt
      groupId: AnlsGrouping_02_Trt_1
    - groupingId: AnlsGrouping_06_Soc
      groupValue: GASTROINTESTINAL DISORDERS
    - groupingId: AnlsGrouping_07_Pt
      groupValue: DYSPEPSIA
    rawValue: '1.1628'
    formattedValue: (  1.2)
  - operationId: Mth01_CatVar_ByGrp_1_n
    resultGroups:
    - groupingId: AnlsGrouping_02_Trt
      groupId: AnlsGrouping_02_Trt_1
    - groupingId: AnlsGrouping_06_Soc
      groupValue: GASTROINTESTINAL DISORDERS
    - groupingId: AnlsGrouping_07_Pt
      groupValue: DYSPHAGIA
    rawValue: '0'
    formattedValue: '0'
  - operationId: Mth01_CatVar_ByGrp_2_pct
    resultGroups:
    - groupingId: AnlsGrouping_02_Trt
      groupId: AnlsGrouping_02_Trt_1
    - groupingId: AnlsGrouping_06_Soc
      groupValue: GASTROINTESTINAL DISORDERS
    - groupingId: AnlsGrouping_07_Pt
      groupValue: DYSPHAGIA
    rawValue: '0'
    formattedValue: (  0.0)
  - operationId: Mth01_CatVar_ByGrp_1_n
    resultGroups:
    - groupingId: AnlsGrouping_02_Trt
      groupId: AnlsGrouping_02_Trt_1
    - groupingId: AnlsGrouping_06_Soc
      groupValue: GASTROINTESTINAL DISORDERS
    - groupingId: AnlsGrouping_07_Pt
      groupValue: FLATULENCE
    rawValue: '1'
    formattedValue: '1'
  - operationId: Mth01_CatVar_ByGrp_2_pct
    resultGroups:
    - groupingId: AnlsGrouping_02_Trt
      groupId: AnlsGrouping_02_Trt_1
    - groupingId: AnlsGrouping_06_Soc
      groupValue: GASTROINTESTINAL DISORDERS
    - groupingId: AnlsGrouping_07_Pt
      groupValue: FLATULENCE
    rawValue: '1.1628'
    formattedValue: (  1.2)
  - operationId: Mth01_CatVar_ByGrp_1_n
    resultGroups:
    - groupingId: AnlsGrouping_02_Trt
      groupId: AnlsGrouping_02_Trt_1
    - groupingId: AnlsGrouping_06_Soc
      groupValue: GASTROINTESTINAL DISORDERS
    - groupingId: AnlsGrouping_07_Pt
      groupValue: GASTROINTESTINAL HAEMORRHAGE
    rawValue: '0'
    formattedValue: '0'
  - operationId: Mth01_CatVar_ByGrp_2_pct
    resultGroups:
    - groupingId: AnlsGrouping_02_Trt
      groupId: AnlsGrouping_02_Trt_1
    - groupingId: AnlsGrouping_06_Soc
      groupValue: GASTROINTESTINAL DISORDERS
    - groupingId: AnlsGrouping_07_Pt
      groupValue: GASTROINTESTINAL HAEMORRHAGE
    rawValue: '0'
    formattedValue: (  0.0)
  - operationId: Mth01_CatVar_ByGrp_1_n
    resultGroups:
    - groupingId: AnlsGrouping_02_Trt
      groupId: AnlsGrouping_02_Trt_1
    - groupingId: AnlsGrouping_06_Soc
      groupValue: GASTROINTESTINAL DISORDERS
    - groupingId: AnlsGrouping_07_Pt
      groupValue: GASTROOESOPHAGEAL REFLUX DISEASE
    rawValue: '1'
    formattedValue: '1'
  - operationId: Mth01_CatVar_ByGrp_2_pct
    resultGroups:
    - groupingId: AnlsGrouping_02_Trt
      groupId: AnlsGrouping_02_Trt_1
    - groupingId: AnlsGrouping_06_Soc
      groupValue: GASTROINTESTINAL DISORDERS
    - groupingId: AnlsGrouping_07_Pt
      groupValue: GASTROOESOPHAGEAL REFLUX DISEASE
    rawValue: '1.1628'
    formattedValue: (  1.2)
  - operationId: Mth01_CatVar_ByGrp_1_n
    resultGroups:
    - groupingId: AnlsGrouping_02_Trt
      groupId: AnlsGrouping_02_Trt_1
    - groupingId: AnlsGrouping_06_Soc
      groupValue: GASTROINTESTINAL DISORDERS
    - groupingId: AnlsGrouping_07_Pt
      groupValue: GLOSSITIS
    rawValue: '1'
    formattedValue: '1'
  - operationId: Mth01_CatVar_ByGrp_2_pct
    resultGroups:
    - groupingId: AnlsGrouping_02_Trt
      groupId: AnlsGrouping_02_Trt_1
    - groupingId: AnlsGrouping_06_Soc
      groupValue: GASTROINTESTINAL DISORDERS
    - groupingId: AnlsGrouping_07_Pt
      groupValue: GLOSSITIS
    rawValue: '1.1628'
    formattedValue: (  1.2)
  - operationId: Mth01_CatVar_ByGrp_1_n
    resultGroups:
    - groupingId: AnlsGrouping_02_Trt
      groupId: AnlsGrouping_02_Trt_1
    - groupingId: AnlsGrouping_06_Soc
      groupValue: GASTROINTESTINAL DISORDERS
    - groupingId: AnlsGrouping_07_Pt
      groupValue: HIATUS HERNIA
    rawValue: '1'
    formattedValue: '1'
  - operationId: Mth01_CatVar_ByGrp_2_pct
    resultGroups:
    - groupingId: AnlsGrouping_02_Trt
      groupId: AnlsGrouping_02_Trt_1
    - groupingId: AnlsGrouping_06_Soc
      groupValue: GASTROINTESTINAL DISORDERS
    - groupingId: AnlsGrouping_07_Pt
      groupValue: HIATUS HERNIA
    rawValue: '1.1628'
    formattedValue: (  1.2)
  - operationId: Mth01_CatVar_ByGrp_1_n
    resultGroups:
    - groupingId: AnlsGrouping_02_Trt
      groupId: AnlsGrouping_02_Trt_1
    - groupingId: AnlsGrouping_06_Soc
      groupValue: GASTROINTESTINAL DISORDERS
    - groupingId: AnlsGrouping_07_Pt
      groupValue: NAUSEA
    rawValue: '3'
    formattedValue: '3'
  - operationId: Mth01_CatVar_ByGrp_2_pct
    resultGroups:
    - groupingId: AnlsGrouping_02_Trt
      groupId: AnlsGrouping_02_Trt_1
    - groupingId: AnlsGrouping_06_Soc
      groupValue: GASTROINTESTINAL DISORDERS
    - groupingId: AnlsGrouping_07_Pt
      groupValue: NAUSEA
    rawValue: '3.4884'
    formattedValue: (  3.5)
  - operationId: Mth01_CatVar_ByGrp_1_n
    resultGroups:
    - groupingId: AnlsGrouping_02_Trt
      groupId: AnlsGrouping_02_Trt_1
    - groupingId: AnlsGrouping_06_Soc
      groupValue: GASTROINTESTINAL DISORDERS
    - groupingId: AnlsGrouping_07_Pt
      groupValue: RECTAL HAEMORRHAGE
    rawValue: '0'
    formattedValue: '0'
  - operationId: Mth01_CatVar_ByGrp_2_pct
    resultGroups:
    - groupingId: AnlsGrouping_02_Trt
      groupId: AnlsGrouping_02_Trt_1
    - groupingId: AnlsGrouping_06_Soc
      groupValue: GASTROINTESTINAL DISORDERS
    - groupingId: AnlsGrouping_07_Pt
      groupValue: RECTAL HAEMORRHAGE
    rawValue: '0'
    formattedValue: (  0.0)
  - operationId: Mth01_CatVar_ByGrp_1_n
    resultGroups:
    - groupingId: AnlsGrouping_02_Trt
      groupId: AnlsGrouping_02_Trt_1
    - groupingId: AnlsGrouping_06_Soc
      groupValue: GASTROINTESTINAL DISORDERS
    - groupingId: AnlsGrouping_07_Pt
      groupValue: SALIVARY HYPERSECRETION
    rawValue: '0'
    formattedValue: '0'
  - operationId: Mth01_CatVar_ByGrp_2_pct
    resultGroups:
    - groupingId: AnlsGrouping_02_Trt
      groupId: AnlsGrouping_02_Trt_1
    - groupingId: AnlsGrouping_06_Soc
      groupValue: GASTROINTESTINAL DISORDERS
    - groupingId: AnlsGrouping_07_Pt
      groupValue: SALIVARY HYPERSECRETION
    rawValue: '0'
    formattedValue: (  0.0)
  - operationId: Mth01_CatVar_ByGrp_1_n
    resultGroups:
    - groupingId: AnlsGrouping_02_Trt
      groupId: AnlsGrouping_02_Trt_1
    - groupingId: AnlsGrouping_06_Soc
      groupValue: GASTROINTESTINAL DISORDERS
    - groupingId: AnlsGrouping_07_Pt
      groupValue: STOMACH DISCOMFORT
    rawValue: '0'
    formattedValue: '0'
  - operationId: Mth01_CatVar_ByGrp_2_pct
    resultGroups:
    - groupingId: AnlsGrouping_02_Trt
      groupId: AnlsGrouping_02_Trt_1
    - groupingId: AnlsGrouping_06_Soc
      groupValue: GASTROINTESTINAL DISORDERS
    - groupingId: AnlsGrouping_07_Pt
      groupValue: STOMACH DISCOMFORT
    rawValue: '0'
    formattedValue: (  0.0)
  - operationId: Mth01_CatVar_ByGrp_1_n
    resultGroups:
    - groupingId: AnlsGrouping_02_Trt
      groupId: AnlsGrouping_02_Trt_1
    - groupingId: AnlsGrouping_06_Soc
      groupValue: GASTROINTESTINAL DISORDERS
    - groupingId: AnlsGrouping_07_Pt
      groupValue: VOMITING
    rawValue: '3'
    formattedValue: '3'
  - operationId: Mth01_CatVar_ByGrp_2_pct
    resultGroups:
    - groupingId: AnlsGrouping_02_Trt
      groupId: AnlsGrouping_02_Trt_1
    - groupingId: AnlsGrouping_06_Soc
      groupValue: GASTROINTESTINAL DISORDERS
    - groupingId: AnlsGrouping_07_Pt
      groupValue: VOMITING
    rawValue: '3.4884'
    formattedValue: (  3.5)
  - operationId: Mth01_CatVar_ByGrp_1_n
    resultGroups:
    - groupingId: AnlsGrouping_02_Trt
      groupId: AnlsGrouping_02_Trt_1
    - groupingId: AnlsGrouping_06_Soc
      groupValue: GENERAL DISORDERS AND ADMINISTRATION SITE CONDITIONS
    - groupingId: AnlsGrouping_07_Pt
      groupValue: APPLICATION SITE BLEEDING
    rawValue: '0'
    formattedValue: '0'
  - operationId: Mth01_CatVar_ByGrp_2_pct
    resultGroups:
    - groupingId: AnlsGrouping_02_Trt
      groupId: AnlsGrouping_02_Trt_1
    - groupingId: AnlsGrouping_06_Soc
      groupValue: GENERAL DISORDERS AND ADMINISTRATION SITE CONDITIONS
    - groupingId: AnlsGrouping_07_Pt
      groupValue: APPLICATION SITE BLEEDING
    rawValue: '0'
    formattedValue: (  0.0)
  - operationId: Mth01_CatVar_ByGrp_1_n
    resultGroups:
    - groupingId: AnlsGrouping_02_Trt
      groupId: AnlsGrouping_02_Trt_1
    - groupingId: AnlsGrouping_06_Soc
      groupValue: GENERAL DISORDERS AND ADMINISTRATION SITE CONDITIONS
    - groupingId: AnlsGrouping_07_Pt
      groupValue: APPLICATION SITE DERMATITIS
    rawValue: '5'
    formattedValue: '5'
  - operationId: Mth01_CatVar_ByGrp_2_pct
    resultGroups:
    - groupingId: AnlsGrouping_02_Trt
      groupId: AnlsGrouping_02_Trt_1
    - groupingId: AnlsGrouping_06_Soc
      groupValue: GENERAL DISORDERS AND ADMINISTRATION SITE CONDITIONS
    - groupingId: AnlsGrouping_07_Pt
      groupValue: APPLICATION SITE DERMATITIS
    rawValue: '5.814'
    formattedValue: (  5.8)
  - operationId: Mth01_CatVar_ByGrp_1_n
    resultGroups:
    - groupingId: AnlsGrouping_02_Trt
      groupId: AnlsGrouping_02_Trt_1
    - groupingId: AnlsGrouping_06_Soc
      groupValue: GENERAL DISORDERS AND ADMINISTRATION SITE CONDITIONS
    - groupingId: AnlsGrouping_07_Pt
      groupValue: APPLICATION SITE DESQUAMATION
    rawValue: '0'
    formattedValue: '0'
  - operationId: Mth01_CatVar_ByGrp_2_pct
    resultGroups:
    - groupingId: AnlsGrouping_02_Trt
      groupId: AnlsGrouping_02_Trt_1
    - groupingId: AnlsGrouping_06_Soc
      groupValue: GENERAL DISORDERS AND ADMINISTRATION SITE CONDITIONS
    - groupingId: AnlsGrouping_07_Pt
      groupValue: APPLICATION SITE DESQUAMATION
    rawValue: '0'
    formattedValue: (  0.0)
  - operationId: Mth01_CatVar_ByGrp_1_n
    resultGroups:
    - groupingId: AnlsGrouping_02_Trt
      groupId: AnlsGrouping_02_Trt_1
    - groupingId: AnlsGrouping_06_Soc
      groupValue: GENERAL DISORDERS AND ADMINISTRATION SITE CONDITIONS
    - groupingId: AnlsGrouping_07_Pt
      groupValue: APPLICATION SITE DISCHARGE
    rawValue: '0'
    formattedValue: '0'
  - operationId: Mth01_CatVar_ByGrp_2_pct
    resultGroups:
    - groupingId: AnlsGrouping_02_Trt
      groupId: AnlsGrouping_02_Trt_1
    - groupingId: AnlsGrouping_06_Soc
      groupValue: GENERAL DISORDERS AND ADMINISTRATION SITE CONDITIONS
    - groupingId: AnlsGrouping_07_Pt
      groupValue: APPLICATION SITE DISCHARGE
    rawValue: '0'
    formattedValue: (  0.0)
  - operationId: Mth01_CatVar_ByGrp_1_n
    resultGroups:
    - groupingId: AnlsGrouping_02_Trt
      groupId: AnlsGrouping_02_Trt_1
    - groupingId: AnlsGrouping_06_Soc
      groupValue: GENERAL DISORDERS AND ADMINISTRATION SITE CONDITIONS
    - groupingId: AnlsGrouping_07_Pt
      groupValue: APPLICATION SITE DISCOLOURATION
    rawValue: '0'
    formattedValue: '0'
  - operationId: Mth01_CatVar_ByGrp_2_pct
    resultGroups:
    - groupingId: AnlsGrouping_02_Trt
      groupId: AnlsGrouping_02_Trt_1
    - groupingId: AnlsGrouping_06_Soc
      groupValue: GENERAL DISORDERS AND ADMINISTRATION SITE CONDITIONS
    - groupingId: AnlsGrouping_07_Pt
      groupValue: APPLICATION SITE DISCOLOURATION
    rawValue: '0'
    formattedValue: (  0.0)
  - operationId: Mth01_CatVar_ByGrp_1_n
    resultGroups:
    - groupingId: AnlsGrouping_02_Trt
      groupId: AnlsGrouping_02_Trt_1
    - groupingId: AnlsGrouping_06_Soc
      groupValue: GENERAL DISORDERS AND ADMINISTRATION SITE CONDITIONS
    - groupingId: AnlsGrouping_07_Pt
      groupValue: APPLICATION SITE ERYTHEMA
    rawValue: '3'
    formattedValue: '3'
  - operationId: Mth01_CatVar_ByGrp_2_pct
    resultGroups:
    - groupingId: AnlsGrouping_02_Trt
      groupId: AnlsGrouping_02_Trt_1
    - groupingId: AnlsGrouping_06_Soc
      groupValue: GENERAL DISORDERS AND ADMINISTRATION SITE CONDITIONS
    - groupingId: AnlsGrouping_07_Pt
      groupValue: APPLICATION SITE ERYTHEMA
    rawValue: '3.4884'
    formattedValue: (  3.5)
  - operationId: Mth01_CatVar_ByGrp_1_n
    resultGroups:
    - groupingId: AnlsGrouping_02_Trt
      groupId: AnlsGrouping_02_Trt_1
    - groupingId: AnlsGrouping_06_Soc
      groupValue: GENERAL DISORDERS AND ADMINISTRATION SITE CONDITIONS
    - groupingId: AnlsGrouping_07_Pt
      groupValue: APPLICATION SITE INDURATION
    rawValue: '1'
    formattedValue: '1'
  - operationId: Mth01_CatVar_ByGrp_2_pct
    resultGroups:
    - groupingId: AnlsGrouping_02_Trt
      groupId: AnlsGrouping_02_Trt_1
    - groupingId: AnlsGrouping_06_Soc
      groupValue: GENERAL DISORDERS AND ADMINISTRATION SITE CONDITIONS
    - groupingId: AnlsGrouping_07_Pt
      groupValue: APPLICATION SITE INDURATION
    rawValue: '1.1628'
    formattedValue: (  1.2)
  - operationId: Mth01_CatVar_ByGrp_1_n
    resultGroups:
    - groupingId: AnlsGrouping_02_Trt
      groupId: AnlsGrouping_02_Trt_1
    - groupingId: AnlsGrouping_06_Soc
      groupValue: GENERAL DISORDERS AND ADMINISTRATION SITE CONDITIONS
    - groupingId: AnlsGrouping_07_Pt
      groupValue: APPLICATION SITE IRRITATION
    rawValue: '3'
    formattedValue: '3'
  - operationId: Mth01_CatVar_ByGrp_2_pct
    resultGroups:
    - groupingId: AnlsGrouping_02_Trt
      groupId: AnlsGrouping_02_Trt_1
    - groupingId: AnlsGrouping_06_Soc
      groupValue: GENERAL DISORDERS AND ADMINISTRATION SITE CONDITIONS
    - groupingId: AnlsGrouping_07_Pt
      groupValue: APPLICATION SITE IRRITATION
    rawValue: '3.4884'
    formattedValue: (  3.5)
  - operationId: Mth01_CatVar_ByGrp_1_n
    resultGroups:
    - groupingId: AnlsGrouping_02_Trt
      groupId: AnlsGrouping_02_Trt_1
    - groupingId: AnlsGrouping_06_Soc
      groupValue: GENERAL DISORDERS AND ADMINISTRATION SITE CONDITIONS
    - groupingId: AnlsGrouping_07_Pt
      groupValue: APPLICATION SITE PAIN
    rawValue: '0'
    formattedValue: '0'
  - operationId: Mth01_CatVar_ByGrp_2_pct
    resultGroups:
    - groupingId: AnlsGrouping_02_Trt
      groupId: AnlsGrouping_02_Trt_1
    - groupingId: AnlsGrouping_06_Soc
      groupValue: GENERAL DISORDERS AND ADMINISTRATION SITE CONDITIONS
    - groupingId: AnlsGrouping_07_Pt
      groupValue: APPLICATION SITE PAIN
    rawValue: '0'
    formattedValue: (  0.0)
  - operationId: Mth01_CatVar_ByGrp_1_n
    resultGroups:
    - groupingId: AnlsGrouping_02_Trt
      groupId: AnlsGrouping_02_Trt_1
    - groupingId: AnlsGrouping_06_Soc
      groupValue: GENERAL DISORDERS AND ADMINISTRATION SITE CONDITIONS
    - groupingId: AnlsGrouping_07_Pt
      groupValue: APPLICATION SITE PERSPIRATION
    rawValue: '0'
    formattedValue: '0'
  - operationId: Mth01_CatVar_ByGrp_2_pct
    resultGroups:
    - groupingId: AnlsGrouping_02_Trt
      groupId: AnlsGrouping_02_Trt_1
    - groupingId: AnlsGrouping_06_Soc
      groupValue: GENERAL DISORDERS AND ADMINISTRATION SITE CONDITIONS
    - groupingId: AnlsGrouping_07_Pt
      groupValue: APPLICATION SITE PERSPIRATION
    rawValue: '0'
    formattedValue: (  0.0)
  - operationId: Mth01_CatVar_ByGrp_1_n
    resultGroups:
    - groupingId: AnlsGrouping_02_Trt
      groupId: AnlsGrouping_02_Trt_1
    - groupingId: AnlsGrouping_06_Soc
      groupValue: GENERAL DISORDERS AND ADMINISTRATION SITE CONDITIONS
    - groupingId: AnlsGrouping_07_Pt
      groupValue: APPLICATION SITE PRURITUS
    rawValue: '6'
    formattedValue: '6'
  - operationId: Mth01_CatVar_ByGrp_2_pct
    resultGroups:
    - groupingId: AnlsGrouping_02_Trt
      groupId: AnlsGrouping_02_Trt_1
    - groupingId: AnlsGrouping_06_Soc
      groupValue: GENERAL DISORDERS AND ADMINISTRATION SITE CONDITIONS
    - groupingId: AnlsGrouping_07_Pt
      groupValue: APPLICATION SITE PRURITUS
    rawValue: '6.9767'
    formattedValue: (  7.0)
  - operationId: Mth01_CatVar_ByGrp_1_n
    resultGroups:
    - groupingId: AnlsGrouping_02_Trt
      groupId: AnlsGrouping_02_Trt_1
    - groupingId: AnlsGrouping_06_Soc
      groupValue: GENERAL DISORDERS AND ADMINISTRATION SITE CONDITIONS
    - groupingId: AnlsGrouping_07_Pt
      groupValue: APPLICATION SITE REACTION
    rawValue: '1'
    formattedValue: '1'
  - operationId: Mth01_CatVar_ByGrp_2_pct
    resultGroups:
    - groupingId: AnlsGrouping_02_Trt
      groupId: AnlsGrouping_02_Trt_1
    - groupingId: AnlsGrouping_06_Soc
      groupValue: GENERAL DISORDERS AND ADMINISTRATION SITE CONDITIONS
    - groupingId: AnlsGrouping_07_Pt
      groupValue: APPLICATION SITE REACTION
    rawValue: '1.1628'
    formattedValue: (  1.2)
  - operationId: Mth01_CatVar_ByGrp_1_n
    resultGroups:
    - groupingId: AnlsGrouping_02_Trt
      groupId: AnlsGrouping_02_Trt_1
    - groupingId: AnlsGrouping_06_Soc
      groupValue: GENERAL DISORDERS AND ADMINISTRATION SITE CONDITIONS
    - groupingId: AnlsGrouping_07_Pt
      groupValue: APPLICATION SITE SWELLING
    rawValue: '0'
    formattedValue: '0'
  - operationId: Mth01_CatVar_ByGrp_2_pct
    resultGroups:
    - groupingId: AnlsGrouping_02_Trt
      groupId: AnlsGrouping_02_Trt_1
    - groupingId: AnlsGrouping_06_Soc
      groupValue: GENERAL DISORDERS AND ADMINISTRATION SITE CONDITIONS
    - groupingId: AnlsGrouping_07_Pt
      groupValue: APPLICATION SITE SWELLING
    rawValue: '0'
    formattedValue: (  0.0)
  - operationId: Mth01_CatVar_ByGrp_1_n
    resultGroups:
    - groupingId: AnlsGrouping_02_Trt
      groupId: AnlsGrouping_02_Trt_1
    - groupingId: AnlsGrouping_06_Soc
      groupValue: GENERAL DISORDERS AND ADMINISTRATION SITE CONDITIONS
    - groupingId: AnlsGrouping_07_Pt
      groupValue: APPLICATION SITE URTICARIA
    rawValue: '0'
    formattedValue: '0'
  - operationId: Mth01_CatVar_ByGrp_2_pct
    resultGroups:
    - groupingId: AnlsGrouping_02_Trt
      groupId: AnlsGrouping_02_Trt_1
    - groupingId: AnlsGrouping_06_Soc
      groupValue: GENERAL DISORDERS AND ADMINISTRATION SITE CONDITIONS
    - groupingId: AnlsGrouping_07_Pt
      groupValue: APPLICATION SITE URTICARIA
    rawValue: '0'
    formattedValue: (  0.0)
  - operationId: Mth01_CatVar_ByGrp_1_n
    resultGroups:
    - groupingId: AnlsGrouping_02_Trt
      groupId: AnlsGrouping_02_Trt_1
    - groupingId: AnlsGrouping_06_Soc
      groupValue: GENERAL DISORDERS AND ADMINISTRATION SITE CONDITIONS
    - groupingId: AnlsGrouping_07_Pt
      groupValue: APPLICATION SITE VESICLES
    rawValue: '1'
    formattedValue: '1'
  - operationId: Mth01_CatVar_ByGrp_2_pct
    resultGroups:
    - groupingId: AnlsGrouping_02_Trt
      groupId: AnlsGrouping_02_Trt_1
    - groupingId: AnlsGrouping_06_Soc
      groupValue: GENERAL DISORDERS AND ADMINISTRATION SITE CONDITIONS
    - groupingId: AnlsGrouping_07_Pt
      groupValue: APPLICATION SITE VESICLES
    rawValue: '1.1628'
    formattedValue: (  1.2)
  - operationId: Mth01_CatVar_ByGrp_1_n
    resultGroups:
    - groupingId: AnlsGrouping_02_Trt
      groupId: AnlsGrouping_02_Trt_1
    - groupingId: AnlsGrouping_06_Soc
      groupValue: GENERAL DISORDERS AND ADMINISTRATION SITE CONDITIONS
    - groupingId: AnlsGrouping_07_Pt
      groupValue: APPLICATION SITE WARMTH
    rawValue: '0'
    formattedValue: '0'
  - operationId: Mth01_CatVar_ByGrp_2_pct
    resultGroups:
    - groupingId: AnlsGrouping_02_Trt
      groupId: AnlsGrouping_02_Trt_1
    - groupingId: AnlsGrouping_06_Soc
      groupValue: GENERAL DISORDERS AND ADMINISTRATION SITE CONDITIONS
    - groupingId: AnlsGrouping_07_Pt
      groupValue: APPLICATION SITE WARMTH
    rawValue: '0'
    formattedValue: (  0.0)
  - operationId: Mth01_CatVar_ByGrp_1_n
    resultGroups:
    - groupingId: AnlsGrouping_02_Trt
      groupId: AnlsGrouping_02_Trt_1
    - groupingId: AnlsGrouping_06_Soc
      groupValue: GENERAL DISORDERS AND ADMINISTRATION SITE CONDITIONS
    - groupingId: AnlsGrouping_07_Pt
      groupValue: ASTHENIA
    rawValue: '1'
    formattedValue: '1'
  - operationId: Mth01_CatVar_ByGrp_2_pct
    resultGroups:
    - groupingId: AnlsGrouping_02_Trt
      groupId: AnlsGrouping_02_Trt_1
    - groupingId: AnlsGrouping_06_Soc
      groupValue: GENERAL DISORDERS AND ADMINISTRATION SITE CONDITIONS
    - groupingId: AnlsGrouping_07_Pt
      groupValue: ASTHENIA
    rawValue: '1.1628'
    formattedValue: (  1.2)
  - operationId: Mth01_CatVar_ByGrp_1_n
    resultGroups:
    - groupingId: AnlsGrouping_02_Trt
      groupId: AnlsGrouping_02_Trt_1
    - groupingId: AnlsGrouping_06_Soc
      groupValue: GENERAL DISORDERS AND ADMINISTRATION SITE CONDITIONS
    - groupingId: AnlsGrouping_07_Pt
      groupValue: CHEST DISCOMFORT
    rawValue: '0'
    formattedValue: '0'
  - operationId: Mth01_CatVar_ByGrp_2_pct
    resultGroups:
    - groupingId: AnlsGrouping_02_Trt
      groupId: AnlsGrouping_02_Trt_1
    - groupingId: AnlsGrouping_06_Soc
      groupValue: GENERAL DISORDERS AND ADMINISTRATION SITE CONDITIONS
    - groupingId: AnlsGrouping_07_Pt
      groupValue: CHEST DISCOMFORT
    rawValue: '0'
    formattedValue: (  0.0)
  - operationId: Mth01_CatVar_ByGrp_1_n
    resultGroups:
    - groupingId: AnlsGrouping_02_Trt
      groupId: AnlsGrouping_02_Trt_1
    - groupingId: AnlsGrouping_06_Soc
      groupValue: GENERAL DISORDERS AND ADMINISTRATION SITE CONDITIONS
    - groupingId: AnlsGrouping_07_Pt
      groupValue: CHEST PAIN
    rawValue: '0'
    formattedValue: '0'
  - operationId: Mth01_CatVar_ByGrp_2_pct
    resultGroups:
    - groupingId: AnlsGrouping_02_Trt
      groupId: AnlsGrouping_02_Trt_1
    - groupingId: AnlsGrouping_06_Soc
      groupValue: GENERAL DISORDERS AND ADMINISTRATION SITE CONDITIONS
    - groupingId: AnlsGrouping_07_Pt
      groupValue: CHEST PAIN
    rawValue: '0'
    formattedValue: (  0.0)
  - operationId: Mth01_CatVar_ByGrp_1_n
    resultGroups:
    - groupingId: AnlsGrouping_02_Trt
      groupId: AnlsGrouping_02_Trt_1
    - groupingId: AnlsGrouping_06_Soc
      groupValue: GENERAL DISORDERS AND ADMINISTRATION SITE CONDITIONS
    - groupingId: AnlsGrouping_07_Pt
      groupValue: CHILLS
    rawValue: '1'
    formattedValue: '1'
  - operationId: Mth01_CatVar_ByGrp_2_pct
    resultGroups:
    - groupingId: AnlsGrouping_02_Trt
      groupId: AnlsGrouping_02_Trt_1
    - groupingId: AnlsGrouping_06_Soc
      groupValue: GENERAL DISORDERS AND ADMINISTRATION SITE CONDITIONS
    - groupingId: AnlsGrouping_07_Pt
      groupValue: CHILLS
    rawValue: '1.1628'
    formattedValue: (  1.2)
  - operationId: Mth01_CatVar_ByGrp_1_n
    resultGroups:
    - groupingId: AnlsGrouping_02_Trt
      groupId: AnlsGrouping_02_Trt_1
    - groupingId: AnlsGrouping_06_Soc
      groupValue: GENERAL DISORDERS AND ADMINISTRATION SITE CONDITIONS
    - groupingId: AnlsGrouping_07_Pt
      groupValue: FATIGUE
    rawValue: '1'
    formattedValue: '1'
  - operationId: Mth01_CatVar_ByGrp_2_pct
    resultGroups:
    - groupingId: AnlsGrouping_02_Trt
      groupId: AnlsGrouping_02_Trt_1
    - groupingId: AnlsGrouping_06_Soc
      groupValue: GENERAL DISORDERS AND ADMINISTRATION SITE CONDITIONS
    - groupingId: AnlsGrouping_07_Pt
      groupValue: FATIGUE
    rawValue: '1.1628'
    formattedValue: (  1.2)
  - operationId: Mth01_CatVar_ByGrp_1_n
    resultGroups:
    - groupingId: AnlsGrouping_02_Trt
      groupId: AnlsGrouping_02_Trt_1
    - groupingId: AnlsGrouping_06_Soc
      groupValue: GENERAL DISORDERS AND ADMINISTRATION SITE CONDITIONS
    - groupingId: AnlsGrouping_07_Pt
      groupValue: FEELING ABNORMAL
    rawValue: '0'
    formattedValue: '0'
  - operationId: Mth01_CatVar_ByGrp_2_pct
    resultGroups:
    - groupingId: AnlsGrouping_02_Trt
      groupId: AnlsGrouping_02_Trt_1
    - groupingId: AnlsGrouping_06_Soc
      groupValue: GENERAL DISORDERS AND ADMINISTRATION SITE CONDITIONS
    - groupingId: AnlsGrouping_07_Pt
      groupValue: FEELING ABNORMAL
    rawValue: '0'
    formattedValue: (  0.0)
  - operationId: Mth01_CatVar_ByGrp_1_n
    resultGroups:
    - groupingId: AnlsGrouping_02_Trt
      groupId: AnlsGrouping_02_Trt_1
    - groupingId: AnlsGrouping_06_Soc
      groupValue: GENERAL DISORDERS AND ADMINISTRATION SITE CONDITIONS
    - groupingId: AnlsGrouping_07_Pt
      groupValue: FEELING COLD
    rawValue: '0'
    formattedValue: '0'
  - operationId: Mth01_CatVar_ByGrp_2_pct
    resultGroups:
    - groupingId: AnlsGrouping_02_Trt
      groupId: AnlsGrouping_02_Trt_1
    - groupingId: AnlsGrouping_06_Soc
      groupValue: GENERAL DISORDERS AND ADMINISTRATION SITE CONDITIONS
    - groupingId: AnlsGrouping_07_Pt
      groupValue: FEELING COLD
    rawValue: '0'
    formattedValue: (  0.0)
  - operationId: Mth01_CatVar_ByGrp_1_n
    resultGroups:
    - groupingId: AnlsGrouping_02_Trt
      groupId: AnlsGrouping_02_Trt_1
    - groupingId: AnlsGrouping_06_Soc
      groupValue: GENERAL DISORDERS AND ADMINISTRATION SITE CONDITIONS
    - groupingId: AnlsGrouping_07_Pt
      groupValue: INFLAMMATION
    rawValue: '0'
    formattedValue: '0'
  - operationId: Mth01_CatVar_ByGrp_2_pct
    resultGroups:
    - groupingId: AnlsGrouping_02_Trt
      groupId: AnlsGrouping_02_Trt_1
    - groupingId: AnlsGrouping_06_Soc
      groupValue: GENERAL DISORDERS AND ADMINISTRATION SITE CONDITIONS
    - groupingId: AnlsGrouping_07_Pt
      groupValue: INFLAMMATION
    rawValue: '0'
    formattedValue: (  0.0)
  - operationId: Mth01_CatVar_ByGrp_1_n
    resultGroups:
    - groupingId: AnlsGrouping_02_Trt
      groupId: AnlsGrouping_02_Trt_1
    - groupingId: AnlsGrouping_06_Soc
      groupValue: GENERAL DISORDERS AND ADMINISTRATION SITE CONDITIONS
    - groupingId: AnlsGrouping_07_Pt
      groupValue: MALAISE
    rawValue: '0'
    formattedValue: '0'
  - operationId: Mth01_CatVar_ByGrp_2_pct
    resultGroups:
    - groupingId: AnlsGrouping_02_Trt
      groupId: AnlsGrouping_02_Trt_1
    - groupingId: AnlsGrouping_06_Soc
      groupValue: GENERAL DISORDERS AND ADMINISTRATION SITE CONDITIONS
    - groupingId: AnlsGrouping_07_Pt
      groupValue: MALAISE
    rawValue: '0'
    formattedValue: (  0.0)
  - operationId: Mth01_CatVar_ByGrp_1_n
    resultGroups:
    - groupingId: AnlsGrouping_02_Trt
      groupId: AnlsGrouping_02_Trt_1
    - groupingId: AnlsGrouping_06_Soc
      groupValue: GENERAL DISORDERS AND ADMINISTRATION SITE CONDITIONS
    - groupingId: AnlsGrouping_07_Pt
      groupValue: OEDEMA
    rawValue: '0'
    formattedValue: '0'
  - operationId: Mth01_CatVar_ByGrp_2_pct
    resultGroups:
    - groupingId: AnlsGrouping_02_Trt
      groupId: AnlsGrouping_02_Trt_1
    - groupingId: AnlsGrouping_06_Soc
      groupValue: GENERAL DISORDERS AND ADMINISTRATION SITE CONDITIONS
    - groupingId: AnlsGrouping_07_Pt
      groupValue: OEDEMA
    rawValue: '0'
    formattedValue: (  0.0)
  - operationId: Mth01_CatVar_ByGrp_1_n
    resultGroups:
    - groupingId: AnlsGrouping_02_Trt
      groupId: AnlsGrouping_02_Trt_1
    - groupingId: AnlsGrouping_06_Soc
      groupValue: GENERAL DISORDERS AND ADMINISTRATION SITE CONDITIONS
    - groupingId: AnlsGrouping_07_Pt
      groupValue: OEDEMA PERIPHERAL
    rawValue: '2'
    formattedValue: '2'
  - operationId: Mth01_CatVar_ByGrp_2_pct
    resultGroups:
    - groupingId: AnlsGrouping_02_Trt
      groupId: AnlsGrouping_02_Trt_1
    - groupingId: AnlsGrouping_06_Soc
      groupValue: GENERAL DISORDERS AND ADMINISTRATION SITE CONDITIONS
    - groupingId: AnlsGrouping_07_Pt
      groupValue: OEDEMA PERIPHERAL
    rawValue: '2.3256'
    formattedValue: (  2.3)
  - operationId: Mth01_CatVar_ByGrp_1_n
    resultGroups:
    - groupingId: AnlsGrouping_02_Trt
      groupId: AnlsGrouping_02_Trt_1
    - groupingId: AnlsGrouping_06_Soc
      groupValue: GENERAL DISORDERS AND ADMINISTRATION SITE CONDITIONS
    - groupingId: AnlsGrouping_07_Pt
      groupValue: PAIN
    rawValue: '0'
    formattedValue: '0'
  - operationId: Mth01_CatVar_ByGrp_2_pct
    resultGroups:
    - groupingId: AnlsGrouping_02_Trt
      groupId: AnlsGrouping_02_Trt_1
    - groupingId: AnlsGrouping_06_Soc
      groupValue: GENERAL DISORDERS AND ADMINISTRATION SITE CONDITIONS
    - groupingId: AnlsGrouping_07_Pt
      groupValue: PAIN
    rawValue: '0'
    formattedValue: (  0.0)
  - operationId: Mth01_CatVar_ByGrp_1_n
    resultGroups:
    - groupingId: AnlsGrouping_02_Trt
      groupId: AnlsGrouping_02_Trt_1
    - groupingId: AnlsGrouping_06_Soc
      groupValue: GENERAL DISORDERS AND ADMINISTRATION SITE CONDITIONS
    - groupingId: AnlsGrouping_07_Pt
      groupValue: PYREXIA
    rawValue: '2'
    formattedValue: '2'
  - operationId: Mth01_CatVar_ByGrp_2_pct
    resultGroups:
    - groupingId: AnlsGrouping_02_Trt
      groupId: AnlsGrouping_02_Trt_1
    - groupingId: AnlsGrouping_06_Soc
      groupValue: GENERAL DISORDERS AND ADMINISTRATION SITE CONDITIONS
    - groupingId: AnlsGrouping_07_Pt
      groupValue: PYREXIA
    rawValue: '2.3256'
    formattedValue: (  2.3)
  - operationId: Mth01_CatVar_ByGrp_1_n
    resultGroups:
    - groupingId: AnlsGrouping_02_Trt
      groupId: AnlsGrouping_02_Trt_1
    - groupingId: AnlsGrouping_06_Soc
      groupValue: GENERAL DISORDERS AND ADMINISTRATION SITE CONDITIONS
    - groupingId: AnlsGrouping_07_Pt
      groupValue: SECRETION DISCHARGE
    rawValue: '0'
    formattedValue: '0'
  - operationId: Mth01_CatVar_ByGrp_2_pct
    resultGroups:
    - groupingId: AnlsGrouping_02_Trt
      groupId: AnlsGrouping_02_Trt_1
    - groupingId: AnlsGrouping_06_Soc
      groupValue: GENERAL DISORDERS AND ADMINISTRATION SITE CONDITIONS
    - groupingId: AnlsGrouping_07_Pt
      groupValue: SECRETION DISCHARGE
    rawValue: '0'
    formattedValue: (  0.0)
  - operationId: Mth01_CatVar_ByGrp_1_n
    resultGroups:
    - groupingId: AnlsGrouping_02_Trt
      groupId: AnlsGrouping_02_Trt_1
    - groupingId: AnlsGrouping_06_Soc
      groupValue: GENERAL DISORDERS AND ADMINISTRATION SITE CONDITIONS
    - groupingId: AnlsGrouping_07_Pt
      groupValue: SUDDEN DEATH
    rawValue: '0'
    formattedValue: '0'
  - operationId: Mth01_CatVar_ByGrp_2_pct
    resultGroups:
    - groupingId: AnlsGrouping_02_Trt
      groupId: AnlsGrouping_02_Trt_1
    - groupingId: AnlsGrouping_06_Soc
      groupValue: GENERAL DISORDERS AND ADMINISTRATION SITE CONDITIONS
    - groupingId: AnlsGrouping_07_Pt
      groupValue: SUDDEN DEATH
    rawValue: '0'
    formattedValue: (  0.0)
  - operationId: Mth01_CatVar_ByGrp_1_n
    resultGroups:
    - groupingId: AnlsGrouping_02_Trt
      groupId: AnlsGrouping_02_Trt_1
    - groupingId: AnlsGrouping_06_Soc
      groupValue: GENERAL DISORDERS AND ADMINISTRATION SITE CONDITIONS
    - groupingId: AnlsGrouping_07_Pt
      groupValue: SWELLING
    rawValue: '0'
    formattedValue: '0'
  - operationId: Mth01_CatVar_ByGrp_2_pct
    resultGroups:
    - groupingId: AnlsGrouping_02_Trt
      groupId: AnlsGrouping_02_Trt_1
    - groupingId: AnlsGrouping_06_Soc
      groupValue: GENERAL DISORDERS AND ADMINISTRATION SITE CONDITIONS
    - groupingId: AnlsGrouping_07_Pt
      groupValue: SWELLING
    rawValue: '0'
    formattedValue: (  0.0)
  - operationId: Mth01_CatVar_ByGrp_1_n
    resultGroups:
    - groupingId: AnlsGrouping_02_Trt
      groupId: AnlsGrouping_02_Trt_1
    - groupingId: AnlsGrouping_06_Soc
      groupValue: GENERAL DISORDERS AND ADMINISTRATION SITE CONDITIONS
    - groupingId: AnlsGrouping_07_Pt
      groupValue: ULCER
    rawValue: '0'
    formattedValue: '0'
  - operationId: Mth01_CatVar_ByGrp_2_pct
    resultGroups:
    - groupingId: AnlsGrouping_02_Trt
      groupId: AnlsGrouping_02_Trt_1
    - groupingId: AnlsGrouping_06_Soc
      groupValue: GENERAL DISORDERS AND ADMINISTRATION SITE CONDITIONS
    - groupingId: AnlsGrouping_07_Pt
      groupValue: ULCER
    rawValue: '0'
    formattedValue: (  0.0)
  - operationId: Mth01_CatVar_ByGrp_1_n
    resultGroups:
    - groupingId: AnlsGrouping_02_Trt
      groupId: AnlsGrouping_02_Trt_1
    - groupingId: AnlsGrouping_06_Soc
      groupValue: HEPATOBILIARY DISORDERS
    - groupingId: AnlsGrouping_07_Pt
      groupValue: HYPERBILIRUBINAEMIA
    rawValue: '1'
    formattedValue: '1'
  - operationId: Mth01_CatVar_ByGrp_2_pct
    resultGroups:
    - groupingId: AnlsGrouping_02_Trt
      groupId: AnlsGrouping_02_Trt_1
    - groupingId: AnlsGrouping_06_Soc
      groupValue: HEPATOBILIARY DISORDERS
    - groupingId: AnlsGrouping_07_Pt
      groupValue: HYPERBILIRUBINAEMIA
    rawValue: '1.1628'
    formattedValue: (  1.2)
  - operationId: Mth01_CatVar_ByGrp_1_n
    resultGroups:
    - groupingId: AnlsGrouping_02_Trt
      groupId: AnlsGrouping_02_Trt_1
    - groupingId: AnlsGrouping_06_Soc
      groupValue: IMMUNE SYSTEM DISORDERS
    - groupingId: AnlsGrouping_07_Pt
      groupValue: HYPERSENSITIVITY
    rawValue: '0'
    formattedValue: '0'
  - operationId: Mth01_CatVar_ByGrp_2_pct
    resultGroups:
    - groupingId: AnlsGrouping_02_Trt
      groupId: AnlsGrouping_02_Trt_1
    - groupingId: AnlsGrouping_06_Soc
      groupValue: IMMUNE SYSTEM DISORDERS
    - groupingId: AnlsGrouping_07_Pt
      groupValue: HYPERSENSITIVITY
    rawValue: '0'
    formattedValue: (  0.0)
  - operationId: Mth01_CatVar_ByGrp_1_n
    resultGroups:
    - groupingId: AnlsGrouping_02_Trt
      groupId: AnlsGrouping_02_Trt_1
    - groupingId: AnlsGrouping_06_Soc
      groupValue: INFECTIONS AND INFESTATIONS
    - groupingId: AnlsGrouping_07_Pt
      groupValue: BRONCHITIS
    rawValue: '1'
    formattedValue: '1'
  - operationId: Mth01_CatVar_ByGrp_2_pct
    resultGroups:
    - groupingId: AnlsGrouping_02_Trt
      groupId: AnlsGrouping_02_Trt_1
    - groupingId: AnlsGrouping_06_Soc
      groupValue: INFECTIONS AND INFESTATIONS
    - groupingId: AnlsGrouping_07_Pt
      groupValue: BRONCHITIS
    rawValue: '1.1628'
    formattedValue: (  1.2)
  - operationId: Mth01_CatVar_ByGrp_1_n
    resultGroups:
    - groupingId: AnlsGrouping_02_Trt
      groupId: AnlsGrouping_02_Trt_1
    - groupingId: AnlsGrouping_06_Soc
      groupValue: INFECTIONS AND INFESTATIONS
    - groupingId: AnlsGrouping_07_Pt
      groupValue: CELLULITIS
    rawValue: '0'
    formattedValue: '0'
  - operationId: Mth01_CatVar_ByGrp_2_pct
    resultGroups:
    - groupingId: AnlsGrouping_02_Trt
      groupId: AnlsGrouping_02_Trt_1
    - groupingId: AnlsGrouping_06_Soc
      groupValue: INFECTIONS AND INFESTATIONS
    - groupingId: AnlsGrouping_07_Pt
      groupValue: CELLULITIS
    rawValue: '0'
    formattedValue: (  0.0)
  - operationId: Mth01_CatVar_ByGrp_1_n
    resultGroups:
    - groupingId: AnlsGrouping_02_Trt
      groupId: AnlsGrouping_02_Trt_1
    - groupingId: AnlsGrouping_06_Soc
      groupValue: INFECTIONS AND INFESTATIONS
    - groupingId: AnlsGrouping_07_Pt
      groupValue: CERVICITIS
    rawValue: '1'
    formattedValue: '1'
  - operationId: Mth01_CatVar_ByGrp_2_pct
    resultGroups:
    - groupingId: AnlsGrouping_02_Trt
      groupId: AnlsGrouping_02_Trt_1
    - groupingId: AnlsGrouping_06_Soc
      groupValue: INFECTIONS AND INFESTATIONS
    - groupingId: AnlsGrouping_07_Pt
      groupValue: CERVICITIS
    rawValue: '1.1628'
    formattedValue: (  1.2)
  - operationId: Mth01_CatVar_ByGrp_1_n
    resultGroups:
    - groupingId: AnlsGrouping_02_Trt
      groupId: AnlsGrouping_02_Trt_1
    - groupingId: AnlsGrouping_06_Soc
      groupValue: INFECTIONS AND INFESTATIONS
    - groupingId: AnlsGrouping_07_Pt
      groupValue: CYSTITIS
    rawValue: '1'
    formattedValue: '1'
  - operationId: Mth01_CatVar_ByGrp_2_pct
    resultGroups:
    - groupingId: AnlsGrouping_02_Trt
      groupId: AnlsGrouping_02_Trt_1
    - groupingId: AnlsGrouping_06_Soc
      groupValue: INFECTIONS AND INFESTATIONS
    - groupingId: AnlsGrouping_07_Pt
      groupValue: CYSTITIS
    rawValue: '1.1628'
    formattedValue: (  1.2)
  - operationId: Mth01_CatVar_ByGrp_1_n
    resultGroups:
    - groupingId: AnlsGrouping_02_Trt
      groupId: AnlsGrouping_02_Trt_1
    - groupingId: AnlsGrouping_06_Soc
      groupValue: INFECTIONS AND INFESTATIONS
    - groupingId: AnlsGrouping_07_Pt
      groupValue: EAR INFECTION
    rawValue: '2'
    formattedValue: '2'
  - operationId: Mth01_CatVar_ByGrp_2_pct
    resultGroups:
    - groupingId: AnlsGrouping_02_Trt
      groupId: AnlsGrouping_02_Trt_1
    - groupingId: AnlsGrouping_06_Soc
      groupValue: INFECTIONS AND INFESTATIONS
    - groupingId: AnlsGrouping_07_Pt
      groupValue: EAR INFECTION
    rawValue: '2.3256'
    formattedValue: (  2.3)
  - operationId: Mth01_CatVar_ByGrp_1_n
    resultGroups:
    - groupingId: AnlsGrouping_02_Trt
      groupId: AnlsGrouping_02_Trt_1
    - groupingId: AnlsGrouping_06_Soc
      groupValue: INFECTIONS AND INFESTATIONS
    - groupingId: AnlsGrouping_07_Pt
      groupValue: GASTROENTERITIS VIRAL
    rawValue: '1'
    formattedValue: '1'
  - operationId: Mth01_CatVar_ByGrp_2_pct
    resultGroups:
    - groupingId: AnlsGrouping_02_Trt
      groupId: AnlsGrouping_02_Trt_1
    - groupingId: AnlsGrouping_06_Soc
      groupValue: INFECTIONS AND INFESTATIONS
    - groupingId: AnlsGrouping_07_Pt
      groupValue: GASTROENTERITIS VIRAL
    rawValue: '1.1628'
    formattedValue: (  1.2)
  - operationId: Mth01_CatVar_ByGrp_1_n
    resultGroups:
    - groupingId: AnlsGrouping_02_Trt
      groupId: AnlsGrouping_02_Trt_1
    - groupingId: AnlsGrouping_06_Soc
      groupValue: INFECTIONS AND INFESTATIONS
    - groupingId: AnlsGrouping_07_Pt
      groupValue: HORDEOLUM
    rawValue: '0'
    formattedValue: '0'
  - operationId: Mth01_CatVar_ByGrp_2_pct
    resultGroups:
    - groupingId: AnlsGrouping_02_Trt
      groupId: AnlsGrouping_02_Trt_1
    - groupingId: AnlsGrouping_06_Soc
      groupValue: INFECTIONS AND INFESTATIONS
    - groupingId: AnlsGrouping_07_Pt
      groupValue: HORDEOLUM
    rawValue: '0'
    formattedValue: (  0.0)
  - operationId: Mth01_CatVar_ByGrp_1_n
    resultGroups:
    - groupingId: AnlsGrouping_02_Trt
      groupId: AnlsGrouping_02_Trt_1
    - groupingId: AnlsGrouping_06_Soc
      groupValue: INFECTIONS AND INFESTATIONS
    - groupingId: AnlsGrouping_07_Pt
      groupValue: INFLUENZA
    rawValue: '1'
    formattedValue: '1'
  - operationId: Mth01_CatVar_ByGrp_2_pct
    resultGroups:
    - groupingId: AnlsGrouping_02_Trt
      groupId: AnlsGrouping_02_Trt_1
    - groupingId: AnlsGrouping_06_Soc
      groupValue: INFECTIONS AND INFESTATIONS
    - groupingId: AnlsGrouping_07_Pt
      groupValue: INFLUENZA
    rawValue: '1.1628'
    formattedValue: (  1.2)
  - operationId: Mth01_CatVar_ByGrp_1_n
    resultGroups:
    - groupingId: AnlsGrouping_02_Trt
      groupId: AnlsGrouping_02_Trt_1
    - groupingId: AnlsGrouping_06_Soc
      groupValue: INFECTIONS AND INFESTATIONS
    - groupingId: AnlsGrouping_07_Pt
      groupValue: LOCALISED INFECTION
    rawValue: '1'
    formattedValue: '1'
  - operationId: Mth01_CatVar_ByGrp_2_pct
    resultGroups:
    - groupingId: AnlsGrouping_02_Trt
      groupId: AnlsGrouping_02_Trt_1
    - groupingId: AnlsGrouping_06_Soc
      groupValue: INFECTIONS AND INFESTATIONS
    - groupingId: AnlsGrouping_07_Pt
      groupValue: LOCALISED INFECTION
    rawValue: '1.1628'
    formattedValue: (  1.2)
  - operationId: Mth01_CatVar_ByGrp_1_n
    resultGroups:
    - groupingId: AnlsGrouping_02_Trt
      groupId: AnlsGrouping_02_Trt_1
    - groupingId: AnlsGrouping_06_Soc
      groupValue: INFECTIONS AND INFESTATIONS
    - groupingId: AnlsGrouping_07_Pt
      groupValue: LOWER RESPIRATORY TRACT INFECTION
    rawValue: '0'
    formattedValue: '0'
  - operationId: Mth01_CatVar_ByGrp_2_pct
    resultGroups:
    - groupingId: AnlsGrouping_02_Trt
      groupId: AnlsGrouping_02_Trt_1
    - groupingId: AnlsGrouping_06_Soc
      groupValue: INFECTIONS AND INFESTATIONS
    - groupingId: AnlsGrouping_07_Pt
      groupValue: LOWER RESPIRATORY TRACT INFECTION
    rawValue: '0'
    formattedValue: (  0.0)
  - operationId: Mth01_CatVar_ByGrp_1_n
    resultGroups:
    - groupingId: AnlsGrouping_02_Trt
      groupId: AnlsGrouping_02_Trt_1
    - groupingId: AnlsGrouping_06_Soc
      groupValue: INFECTIONS AND INFESTATIONS
    - groupingId: AnlsGrouping_07_Pt
      groupValue: NASOPHARYNGITIS
    rawValue: '2'
    formattedValue: '2'
  - operationId: Mth01_CatVar_ByGrp_2_pct
    resultGroups:
    - groupingId: AnlsGrouping_02_Trt
      groupId: AnlsGrouping_02_Trt_1
    - groupingId: AnlsGrouping_06_Soc
      groupValue: INFECTIONS AND INFESTATIONS
    - groupingId: AnlsGrouping_07_Pt
      groupValue: NASOPHARYNGITIS
    rawValue: '2.3256'
    formattedValue: (  2.3)
  - operationId: Mth01_CatVar_ByGrp_1_n
    resultGroups:
    - groupingId: AnlsGrouping_02_Trt
      groupId: AnlsGrouping_02_Trt_1
    - groupingId: AnlsGrouping_06_Soc
      groupValue: INFECTIONS AND INFESTATIONS
    - groupingId: AnlsGrouping_07_Pt
      groupValue: PNEUMONIA
    rawValue: '0'
    formattedValue: '0'
  - operationId: Mth01_CatVar_ByGrp_2_pct
    resultGroups:
    - groupingId: AnlsGrouping_02_Trt
      groupId: AnlsGrouping_02_Trt_1
    - groupingId: AnlsGrouping_06_Soc
      groupValue: INFECTIONS AND INFESTATIONS
    - groupingId: AnlsGrouping_07_Pt
      groupValue: PNEUMONIA
    rawValue: '0'
    formattedValue: (  0.0)
  - operationId: Mth01_CatVar_ByGrp_1_n
    resultGroups:
    - groupingId: AnlsGrouping_02_Trt
      groupId: AnlsGrouping_02_Trt_1
    - groupingId: AnlsGrouping_06_Soc
      groupValue: INFECTIONS AND INFESTATIONS
    - groupingId: AnlsGrouping_07_Pt
      groupValue: RHINITIS
    rawValue: '0'
    formattedValue: '0'
  - operationId: Mth01_CatVar_ByGrp_2_pct
    resultGroups:
    - groupingId: AnlsGrouping_02_Trt
      groupId: AnlsGrouping_02_Trt_1
    - groupingId: AnlsGrouping_06_Soc
      groupValue: INFECTIONS AND INFESTATIONS
    - groupingId: AnlsGrouping_07_Pt
      groupValue: RHINITIS
    rawValue: '0'
    formattedValue: (  0.0)
  - operationId: Mth01_CatVar_ByGrp_1_n
    resultGroups:
    - groupingId: AnlsGrouping_02_Trt
      groupId: AnlsGrouping_02_Trt_1
    - groupingId: AnlsGrouping_06_Soc
      groupValue: INFECTIONS AND INFESTATIONS
    - groupingId: AnlsGrouping_07_Pt
      groupValue: UPPER RESPIRATORY TRACT INFECTION
    rawValue: '6'
    formattedValue: '6'
  - operationId: Mth01_CatVar_ByGrp_2_pct
    resultGroups:
    - groupingId: AnlsGrouping_02_Trt
      groupId: AnlsGrouping_02_Trt_1
    - groupingId: AnlsGrouping_06_Soc
      groupValue: INFECTIONS AND INFESTATIONS
    - groupingId: AnlsGrouping_07_Pt
      groupValue: UPPER RESPIRATORY TRACT INFECTION
    rawValue: '6.9767'
    formattedValue: (  7.0)
  - operationId: Mth01_CatVar_ByGrp_1_n
    resultGroups:
    - groupingId: AnlsGrouping_02_Trt
      groupId: AnlsGrouping_02_Trt_1
    - groupingId: AnlsGrouping_06_Soc
      groupValue: INFECTIONS AND INFESTATIONS
    - groupingId: AnlsGrouping_07_Pt
      groupValue: URINARY TRACT INFECTION
    rawValue: '2'
    formattedValue: '2'
  - operationId: Mth01_CatVar_ByGrp_2_pct
    resultGroups:
    - groupingId: AnlsGrouping_02_Trt
      groupId: AnlsGrouping_02_Trt_1
    - groupingId: AnlsGrouping_06_Soc
      groupValue: INFECTIONS AND INFESTATIONS
    - groupingId: AnlsGrouping_07_Pt
      groupValue: URINARY TRACT INFECTION
    rawValue: '2.3256'
    formattedValue: (  2.3)
  - operationId: Mth01_CatVar_ByGrp_1_n
    resultGroups:
    - groupingId: AnlsGrouping_02_Trt
      groupId: AnlsGrouping_02_Trt_1
    - groupingId: AnlsGrouping_06_Soc
      groupValue: INFECTIONS AND INFESTATIONS
    - groupingId: AnlsGrouping_07_Pt
      groupValue: VAGINAL MYCOSIS
    rawValue: '1'
    formattedValue: '1'
  - operationId: Mth01_CatVar_ByGrp_2_pct
    resultGroups:
    - groupingId: AnlsGrouping_02_Trt
      groupId: AnlsGrouping_02_Trt_1
    - groupingId: AnlsGrouping_06_Soc
      groupValue: INFECTIONS AND INFESTATIONS
    - groupingId: AnlsGrouping_07_Pt
      groupValue: VAGINAL MYCOSIS
    rawValue: '1.1628'
    formattedValue: (  1.2)
  - operationId: Mth01_CatVar_ByGrp_1_n
    resultGroups:
    - groupingId: AnlsGrouping_02_Trt
      groupId: AnlsGrouping_02_Trt_1
    - groupingId: AnlsGrouping_06_Soc
      groupValue: INFECTIONS AND INFESTATIONS
    - groupingId: AnlsGrouping_07_Pt
      groupValue: VIRAL INFECTION
    rawValue: '0'
    formattedValue: '0'
  - operationId: Mth01_CatVar_ByGrp_2_pct
    resultGroups:
    - groupingId: AnlsGrouping_02_Trt
      groupId: AnlsGrouping_02_Trt_1
    - groupingId: AnlsGrouping_06_Soc
      groupValue: INFECTIONS AND INFESTATIONS
    - groupingId: AnlsGrouping_07_Pt
      groupValue: VIRAL INFECTION
    rawValue: '0'
    formattedValue: (  0.0)
  - operationId: Mth01_CatVar_ByGrp_1_n
    resultGroups:
    - groupingId: AnlsGrouping_02_Trt
      groupId: AnlsGrouping_02_Trt_1
    - groupingId: AnlsGrouping_06_Soc
      groupValue: INJURY, POISONING AND PROCEDURAL COMPLICATIONS
    - groupingId: AnlsGrouping_07_Pt
      groupValue: CONTUSION
    rawValue: '1'
    formattedValue: '1'
  - operationId: Mth01_CatVar_ByGrp_2_pct
    resultGroups:
    - groupingId: AnlsGrouping_02_Trt
      groupId: AnlsGrouping_02_Trt_1
    - groupingId: AnlsGrouping_06_Soc
      groupValue: INJURY, POISONING AND PROCEDURAL COMPLICATIONS
    - groupingId: AnlsGrouping_07_Pt
      groupValue: CONTUSION
    rawValue: '1.1628'
    formattedValue: (  1.2)
  - operationId: Mth01_CatVar_ByGrp_1_n
    resultGroups:
    - groupingId: AnlsGrouping_02_Trt
      groupId: AnlsGrouping_02_Trt_1
    - groupingId: AnlsGrouping_06_Soc
      groupValue: INJURY, POISONING AND PROCEDURAL COMPLICATIONS
    - groupingId: AnlsGrouping_07_Pt
      groupValue: EXCORIATION
    rawValue: '2'
    formattedValue: '2'
  - operationId: Mth01_CatVar_ByGrp_2_pct
    resultGroups:
    - groupingId: AnlsGrouping_02_Trt
      groupId: AnlsGrouping_02_Trt_1
    - groupingId: AnlsGrouping_06_Soc
      groupValue: INJURY, POISONING AND PROCEDURAL COMPLICATIONS
    - groupingId: AnlsGrouping_07_Pt
      groupValue: EXCORIATION
    rawValue: '2.3256'
    formattedValue: (  2.3)
  - operationId: Mth01_CatVar_ByGrp_1_n
    resultGroups:
    - groupingId: AnlsGrouping_02_Trt
      groupId: AnlsGrouping_02_Trt_1
    - groupingId: AnlsGrouping_06_Soc
      groupValue: INJURY, POISONING AND PROCEDURAL COMPLICATIONS
    - groupingId: AnlsGrouping_07_Pt
      groupValue: FACIAL BONES FRACTURE
    rawValue: '0'
    formattedValue: '0'
  - operationId: Mth01_CatVar_ByGrp_2_pct
    resultGroups:
    - groupingId: AnlsGrouping_02_Trt
      groupId: AnlsGrouping_02_Trt_1
    - groupingId: AnlsGrouping_06_Soc
      groupValue: INJURY, POISONING AND PROCEDURAL COMPLICATIONS
    - groupingId: AnlsGrouping_07_Pt
      groupValue: FACIAL BONES FRACTURE
    rawValue: '0'
    formattedValue: (  0.0)
  - operationId: Mth01_CatVar_ByGrp_1_n
    resultGroups:
    - groupingId: AnlsGrouping_02_Trt
      groupId: AnlsGrouping_02_Trt_1
    - groupingId: AnlsGrouping_06_Soc
      groupValue: INJURY, POISONING AND PROCEDURAL COMPLICATIONS
    - groupingId: AnlsGrouping_07_Pt
      groupValue: FALL
    rawValue: '1'
    formattedValue: '1'
  - operationId: Mth01_CatVar_ByGrp_2_pct
    resultGroups:
    - groupingId: AnlsGrouping_02_Trt
      groupId: AnlsGrouping_02_Trt_1
    - groupingId: AnlsGrouping_06_Soc
      groupValue: INJURY, POISONING AND PROCEDURAL COMPLICATIONS
    - groupingId: AnlsGrouping_07_Pt
      groupValue: FALL
    rawValue: '1.1628'
    formattedValue: (  1.2)
  - operationId: Mth01_CatVar_ByGrp_1_n
    resultGroups:
    - groupingId: AnlsGrouping_02_Trt
      groupId: AnlsGrouping_02_Trt_1
    - groupingId: AnlsGrouping_06_Soc
      groupValue: INJURY, POISONING AND PROCEDURAL COMPLICATIONS
    - groupingId: AnlsGrouping_07_Pt
      groupValue: HIP FRACTURE
    rawValue: '1'
    formattedValue: '1'
  - operationId: Mth01_CatVar_ByGrp_2_pct
    resultGroups:
    - groupingId: AnlsGrouping_02_Trt
      groupId: AnlsGrouping_02_Trt_1
    - groupingId: AnlsGrouping_06_Soc
      groupValue: INJURY, POISONING AND PROCEDURAL COMPLICATIONS
    - groupingId: AnlsGrouping_07_Pt
      groupValue: HIP FRACTURE
    rawValue: '1.1628'
    formattedValue: (  1.2)
  - operationId: Mth01_CatVar_ByGrp_1_n
    resultGroups:
    - groupingId: AnlsGrouping_02_Trt
      groupId: AnlsGrouping_02_Trt_1
    - groupingId: AnlsGrouping_06_Soc
      groupValue: INJURY, POISONING AND PROCEDURAL COMPLICATIONS
    - groupingId: AnlsGrouping_07_Pt
      groupValue: JOINT DISLOCATION
    rawValue: '0'
    formattedValue: '0'
  - operationId: Mth01_CatVar_ByGrp_2_pct
    resultGroups:
    - groupingId: AnlsGrouping_02_Trt
      groupId: AnlsGrouping_02_Trt_1
    - groupingId: AnlsGrouping_06_Soc
      groupValue: INJURY, POISONING AND PROCEDURAL COMPLICATIONS
    - groupingId: AnlsGrouping_07_Pt
      groupValue: JOINT DISLOCATION
    rawValue: '0'
    formattedValue: (  0.0)
  - operationId: Mth01_CatVar_ByGrp_1_n
    resultGroups:
    - groupingId: AnlsGrouping_02_Trt
      groupId: AnlsGrouping_02_Trt_1
    - groupingId: AnlsGrouping_06_Soc
      groupValue: INJURY, POISONING AND PROCEDURAL COMPLICATIONS
    - groupingId: AnlsGrouping_07_Pt
      groupValue: SKIN LACERATION
    rawValue: '1'
    formattedValue: '1'
  - operationId: Mth01_CatVar_ByGrp_2_pct
    resultGroups:
    - groupingId: AnlsGrouping_02_Trt
      groupId: AnlsGrouping_02_Trt_1
    - groupingId: AnlsGrouping_06_Soc
      groupValue: INJURY, POISONING AND PROCEDURAL COMPLICATIONS
    - groupingId: AnlsGrouping_07_Pt
      groupValue: SKIN LACERATION
    rawValue: '1.1628'
    formattedValue: (  1.2)
  - operationId: Mth01_CatVar_ByGrp_1_n
    resultGroups:
    - groupingId: AnlsGrouping_02_Trt
      groupId: AnlsGrouping_02_Trt_1
    - groupingId: AnlsGrouping_06_Soc
      groupValue: INJURY, POISONING AND PROCEDURAL COMPLICATIONS
    - groupingId: AnlsGrouping_07_Pt
      groupValue: WOUND
    rawValue: '0'
    formattedValue: '0'
  - operationId: Mth01_CatVar_ByGrp_2_pct
    resultGroups:
    - groupingId: AnlsGrouping_02_Trt
      groupId: AnlsGrouping_02_Trt_1
    - groupingId: AnlsGrouping_06_Soc
      groupValue: INJURY, POISONING AND PROCEDURAL COMPLICATIONS
    - groupingId: AnlsGrouping_07_Pt
      groupValue: WOUND
    rawValue: '0'
    formattedValue: (  0.0)
  - operationId: Mth01_CatVar_ByGrp_1_n
    resultGroups:
    - groupingId: AnlsGrouping_02_Trt
      groupId: AnlsGrouping_02_Trt_1
    - groupingId: AnlsGrouping_06_Soc
      groupValue: INVESTIGATIONS
    - groupingId: AnlsGrouping_07_Pt
      groupValue: BIOPSY
    rawValue: '0'
    formattedValue: '0'
  - operationId: Mth01_CatVar_ByGrp_2_pct
    resultGroups:
    - groupingId: AnlsGrouping_02_Trt
      groupId: AnlsGrouping_02_Trt_1
    - groupingId: AnlsGrouping_06_Soc
      groupValue: INVESTIGATIONS
    - groupingId: AnlsGrouping_07_Pt
      groupValue: BIOPSY
    rawValue: '0'
    formattedValue: (  0.0)
  - operationId: Mth01_CatVar_ByGrp_1_n
    resultGroups:
    - groupingId: AnlsGrouping_02_Trt
      groupId: AnlsGrouping_02_Trt_1
    - groupingId: AnlsGrouping_06_Soc
      groupValue: INVESTIGATIONS
    - groupingId: AnlsGrouping_07_Pt
      groupValue: BIOPSY PROSTATE
    rawValue: '0'
    formattedValue: '0'
  - operationId: Mth01_CatVar_ByGrp_2_pct
    resultGroups:
    - groupingId: AnlsGrouping_02_Trt
      groupId: AnlsGrouping_02_Trt_1
    - groupingId: AnlsGrouping_06_Soc
      groupValue: INVESTIGATIONS
    - groupingId: AnlsGrouping_07_Pt
      groupValue: BIOPSY PROSTATE
    rawValue: '0'
    formattedValue: (  0.0)
  - operationId: Mth01_CatVar_ByGrp_1_n
    resultGroups:
    - groupingId: AnlsGrouping_02_Trt
      groupId: AnlsGrouping_02_Trt_1
    - groupingId: AnlsGrouping_06_Soc
      groupValue: INVESTIGATIONS
    - groupingId: AnlsGrouping_07_Pt
      groupValue: BLOOD ALKALINE PHOSPHATASE INCREASED
    rawValue: '1'
    formattedValue: '1'
  - operationId: Mth01_CatVar_ByGrp_2_pct
    resultGroups:
    - groupingId: AnlsGrouping_02_Trt
      groupId: AnlsGrouping_02_Trt_1
    - groupingId: AnlsGrouping_06_Soc
      groupValue: INVESTIGATIONS
    - groupingId: AnlsGrouping_07_Pt
      groupValue: BLOOD ALKALINE PHOSPHATASE INCREASED
    rawValue: '1.1628'
    formattedValue: (  1.2)
  - operationId: Mth01_CatVar_ByGrp_1_n
    resultGroups:
    - groupingId: AnlsGrouping_02_Trt
      groupId: AnlsGrouping_02_Trt_1
    - groupingId: AnlsGrouping_06_Soc
      groupValue: INVESTIGATIONS
    - groupingId: AnlsGrouping_07_Pt
      groupValue: BLOOD CHOLESTEROL INCREASED
    rawValue: '0'
    formattedValue: '0'
  - operationId: Mth01_CatVar_ByGrp_2_pct
    resultGroups:
    - groupingId: AnlsGrouping_02_Trt
      groupId: AnlsGrouping_02_Trt_1
    - groupingId: AnlsGrouping_06_Soc
      groupValue: INVESTIGATIONS
    - groupingId: AnlsGrouping_07_Pt
      groupValue: BLOOD CHOLESTEROL INCREASED
    rawValue: '0'
    formattedValue: (  0.0)
  - operationId: Mth01_CatVar_ByGrp_1_n
    resultGroups:
    - groupingId: AnlsGrouping_02_Trt
      groupId: AnlsGrouping_02_Trt_1
    - groupingId: AnlsGrouping_06_Soc
      groupValue: INVESTIGATIONS
    - groupingId: AnlsGrouping_07_Pt
      groupValue: BLOOD CREATINE PHOSPHOKINASE INCREASED
    rawValue: '1'
    formattedValue: '1'
  - operationId: Mth01_CatVar_ByGrp_2_pct
    resultGroups:
    - groupingId: AnlsGrouping_02_Trt
      groupId: AnlsGrouping_02_Trt_1
    - groupingId: AnlsGrouping_06_Soc
      groupValue: INVESTIGATIONS
    - groupingId: AnlsGrouping_07_Pt
      groupValue: BLOOD CREATINE PHOSPHOKINASE INCREASED
    rawValue: '1.1628'
    formattedValue: (  1.2)
  - operationId: Mth01_CatVar_ByGrp_1_n
    resultGroups:
    - groupingId: AnlsGrouping_02_Trt
      groupId: AnlsGrouping_02_Trt_1
    - groupingId: AnlsGrouping_06_Soc
      groupValue: INVESTIGATIONS
    - groupingId: AnlsGrouping_07_Pt
      groupValue: BLOOD GLUCOSE INCREASED
    rawValue: '0'
    formattedValue: '0'
  - operationId: Mth01_CatVar_ByGrp_2_pct
    resultGroups:
    - groupingId: AnlsGrouping_02_Trt
      groupId: AnlsGrouping_02_Trt_1
    - groupingId: AnlsGrouping_06_Soc
      groupValue: INVESTIGATIONS
    - groupingId: AnlsGrouping_07_Pt
      groupValue: BLOOD GLUCOSE INCREASED
    rawValue: '0'
    formattedValue: (  0.0)
  - operationId: Mth01_CatVar_ByGrp_1_n
    resultGroups:
    - groupingId: AnlsGrouping_02_Trt
      groupId: AnlsGrouping_02_Trt_1
    - groupingId: AnlsGrouping_06_Soc
      groupValue: INVESTIGATIONS
    - groupingId: AnlsGrouping_07_Pt
      groupValue: BLOOD URINE PRESENT
    rawValue: '1'
    formattedValue: '1'
  - operationId: Mth01_CatVar_ByGrp_2_pct
    resultGroups:
    - groupingId: AnlsGrouping_02_Trt
      groupId: AnlsGrouping_02_Trt_1
    - groupingId: AnlsGrouping_06_Soc
      groupValue: INVESTIGATIONS
    - groupingId: AnlsGrouping_07_Pt
      groupValue: BLOOD URINE PRESENT
    rawValue: '1.1628'
    formattedValue: (  1.2)
  - operationId: Mth01_CatVar_ByGrp_1_n
    resultGroups:
    - groupingId: AnlsGrouping_02_Trt
      groupId: AnlsGrouping_02_Trt_1
    - groupingId: AnlsGrouping_06_Soc
      groupValue: INVESTIGATIONS
    - groupingId: AnlsGrouping_07_Pt
      groupValue: BODY TEMPERATURE INCREASED
    rawValue: '0'
    formattedValue: '0'
  - operationId: Mth01_CatVar_ByGrp_2_pct
    resultGroups:
    - groupingId: AnlsGrouping_02_Trt
      groupId: AnlsGrouping_02_Trt_1
    - groupingId: AnlsGrouping_06_Soc
      groupValue: INVESTIGATIONS
    - groupingId: AnlsGrouping_07_Pt
      groupValue: BODY TEMPERATURE INCREASED
    rawValue: '0'
    formattedValue: (  0.0)
  - operationId: Mth01_CatVar_ByGrp_1_n
    resultGroups:
    - groupingId: AnlsGrouping_02_Trt
      groupId: AnlsGrouping_02_Trt_1
    - groupingId: AnlsGrouping_06_Soc
      groupValue: INVESTIGATIONS
    - groupingId: AnlsGrouping_07_Pt
      groupValue: CYSTOSCOPY
    rawValue: '1'
    formattedValue: '1'
  - operationId: Mth01_CatVar_ByGrp_2_pct
    resultGroups:
    - groupingId: AnlsGrouping_02_Trt
      groupId: AnlsGrouping_02_Trt_1
    - groupingId: AnlsGrouping_06_Soc
      groupValue: INVESTIGATIONS
    - groupingId: AnlsGrouping_07_Pt
      groupValue: CYSTOSCOPY
    rawValue: '1.1628'
    formattedValue: (  1.2)
  - operationId: Mth01_CatVar_ByGrp_1_n
    resultGroups:
    - groupingId: AnlsGrouping_02_Trt
      groupId: AnlsGrouping_02_Trt_1
    - groupingId: AnlsGrouping_06_Soc
      groupValue: INVESTIGATIONS
    - groupingId: AnlsGrouping_07_Pt
      groupValue: ELECTROCARDIOGRAM ST SEGMENT DEPRESSION
    rawValue: '4'
    formattedValue: '4'
  - operationId: Mth01_CatVar_ByGrp_2_pct
    resultGroups:
    - groupingId: AnlsGrouping_02_Trt
      groupId: AnlsGrouping_02_Trt_1
    - groupingId: AnlsGrouping_06_Soc
      groupValue: INVESTIGATIONS
    - groupingId: AnlsGrouping_07_Pt
      groupValue: ELECTROCARDIOGRAM ST SEGMENT DEPRESSION
    rawValue: '4.6512'
    formattedValue: (  4.7)
  - operationId: Mth01_CatVar_ByGrp_1_n
    resultGroups:
    - groupingId: AnlsGrouping_02_Trt
      groupId: AnlsGrouping_02_Trt_1
    - groupingId: AnlsGrouping_06_Soc
      groupValue: INVESTIGATIONS
    - groupingId: AnlsGrouping_07_Pt
      groupValue: ELECTROCARDIOGRAM T WAVE AMPLITUDE DECREASED
    rawValue: '1'
    formattedValue: '1'
  - operationId: Mth01_CatVar_ByGrp_2_pct
    resultGroups:
    - groupingId: AnlsGrouping_02_Trt
      groupId: AnlsGrouping_02_Trt_1
    - groupingId: AnlsGrouping_06_Soc
      groupValue: INVESTIGATIONS
    - groupingId: AnlsGrouping_07_Pt
      groupValue: ELECTROCARDIOGRAM T WAVE AMPLITUDE DECREASED
    rawValue: '1.1628'
    formattedValue: (  1.2)
  - operationId: Mth01_CatVar_ByGrp_1_n
    resultGroups:
    - groupingId: AnlsGrouping_02_Trt
      groupId: AnlsGrouping_02_Trt_1
    - groupingId: AnlsGrouping_06_Soc
      groupValue: INVESTIGATIONS
    - groupingId: AnlsGrouping_07_Pt
      groupValue: ELECTROCARDIOGRAM T WAVE INVERSION
    rawValue: '2'
    formattedValue: '2'
  - operationId: Mth01_CatVar_ByGrp_2_pct
    resultGroups:
    - groupingId: AnlsGrouping_02_Trt
      groupId: AnlsGrouping_02_Trt_1
    - groupingId: AnlsGrouping_06_Soc
      groupValue: INVESTIGATIONS
    - groupingId: AnlsGrouping_07_Pt
      groupValue: ELECTROCARDIOGRAM T WAVE INVERSION
    rawValue: '2.3256'
    formattedValue: (  2.3)
  - operationId: Mth01_CatVar_ByGrp_1_n
    resultGroups:
    - groupingId: AnlsGrouping_02_Trt
      groupId: AnlsGrouping_02_Trt_1
    - groupingId: AnlsGrouping_06_Soc
      groupValue: INVESTIGATIONS
    - groupingId: AnlsGrouping_07_Pt
      groupValue: HEART RATE INCREASED
    rawValue: '1'
    formattedValue: '1'
  - operationId: Mth01_CatVar_ByGrp_2_pct
    resultGroups:
    - groupingId: AnlsGrouping_02_Trt
      groupId: AnlsGrouping_02_Trt_1
    - groupingId: AnlsGrouping_06_Soc
      groupValue: INVESTIGATIONS
    - groupingId: AnlsGrouping_07_Pt
      groupValue: HEART RATE INCREASED
    rawValue: '1.1628'
    formattedValue: (  1.2)
  - operationId: Mth01_CatVar_ByGrp_1_n
    resultGroups:
    - groupingId: AnlsGrouping_02_Trt
      groupId: AnlsGrouping_02_Trt_1
    - groupingId: AnlsGrouping_06_Soc
      groupValue: INVESTIGATIONS
    - groupingId: AnlsGrouping_07_Pt
      groupValue: HEART RATE IRREGULAR
    rawValue: '1'
    formattedValue: '1'
  - operationId: Mth01_CatVar_ByGrp_2_pct
    resultGroups:
    - groupingId: AnlsGrouping_02_Trt
      groupId: AnlsGrouping_02_Trt_1
    - groupingId: AnlsGrouping_06_Soc
      groupValue: INVESTIGATIONS
    - groupingId: AnlsGrouping_07_Pt
      groupValue: HEART RATE IRREGULAR
    rawValue: '1.1628'
    formattedValue: (  1.2)
  - operationId: Mth01_CatVar_ByGrp_1_n
    resultGroups:
    - groupingId: AnlsGrouping_02_Trt
      groupId: AnlsGrouping_02_Trt_1
    - groupingId: AnlsGrouping_06_Soc
      groupValue: INVESTIGATIONS
    - groupingId: AnlsGrouping_07_Pt
      groupValue: NASAL MUCOSA BIOPSY
    rawValue: '0'
    formattedValue: '0'
  - operationId: Mth01_CatVar_ByGrp_2_pct
    resultGroups:
    - groupingId: AnlsGrouping_02_Trt
      groupId: AnlsGrouping_02_Trt_1
    - groupingId: AnlsGrouping_06_Soc
      groupValue: INVESTIGATIONS
    - groupingId: AnlsGrouping_07_Pt
      groupValue: NASAL MUCOSA BIOPSY
    rawValue: '0'
    formattedValue: (  0.0)
  - operationId: Mth01_CatVar_ByGrp_1_n
    resultGroups:
    - groupingId: AnlsGrouping_02_Trt
      groupId: AnlsGrouping_02_Trt_1
    - groupingId: AnlsGrouping_06_Soc
      groupValue: INVESTIGATIONS
    - groupingId: AnlsGrouping_07_Pt
      groupValue: WEIGHT DECREASED
    rawValue: '0'
    formattedValue: '0'
  - operationId: Mth01_CatVar_ByGrp_2_pct
    resultGroups:
    - groupingId: AnlsGrouping_02_Trt
      groupId: AnlsGrouping_02_Trt_1
    - groupingId: AnlsGrouping_06_Soc
      groupValue: INVESTIGATIONS
    - groupingId: AnlsGrouping_07_Pt
      groupValue: WEIGHT DECREASED
    rawValue: '0'
    formattedValue: (  0.0)
  - operationId: Mth01_CatVar_ByGrp_1_n
    resultGroups:
    - groupingId: AnlsGrouping_02_Trt
      groupId: AnlsGrouping_02_Trt_1
    - groupingId: AnlsGrouping_06_Soc
      groupValue: METABOLISM AND NUTRITION DISORDERS
    - groupingId: AnlsGrouping_07_Pt
      groupValue: DECREASED APPETITE
    rawValue: '1'
    formattedValue: '1'
  - operationId: Mth01_CatVar_ByGrp_2_pct
    resultGroups:
    - groupingId: AnlsGrouping_02_Trt
      groupId: AnlsGrouping_02_Trt_1
    - groupingId: AnlsGrouping_06_Soc
      groupValue: METABOLISM AND NUTRITION DISORDERS
    - groupingId: AnlsGrouping_07_Pt
      groupValue: DECREASED APPETITE
    rawValue: '1.1628'
    formattedValue: (  1.2)
  - operationId: Mth01_CatVar_ByGrp_1_n
    resultGroups:
    - groupingId: AnlsGrouping_02_Trt
      groupId: AnlsGrouping_02_Trt_1
    - groupingId: AnlsGrouping_06_Soc
      groupValue: METABOLISM AND NUTRITION DISORDERS
    - groupingId: AnlsGrouping_07_Pt
      groupValue: DEHYDRATION
    rawValue: '1'
    formattedValue: '1'
  - operationId: Mth01_CatVar_ByGrp_2_pct
    resultGroups:
    - groupingId: AnlsGrouping_02_Trt
      groupId: AnlsGrouping_02_Trt_1
    - groupingId: AnlsGrouping_06_Soc
      groupValue: METABOLISM AND NUTRITION DISORDERS
    - groupingId: AnlsGrouping_07_Pt
      groupValue: DEHYDRATION
    rawValue: '1.1628'
    formattedValue: (  1.2)
  - operationId: Mth01_CatVar_ByGrp_1_n
    resultGroups:
    - groupingId: AnlsGrouping_02_Trt
      groupId: AnlsGrouping_02_Trt_1
    - groupingId: AnlsGrouping_06_Soc
      groupValue: METABOLISM AND NUTRITION DISORDERS
    - groupingId: AnlsGrouping_07_Pt
      groupValue: DIABETES MELLITUS
    rawValue: '1'
    formattedValue: '1'
  - operationId: Mth01_CatVar_ByGrp_2_pct
    resultGroups:
    - groupingId: AnlsGrouping_02_Trt
      groupId: AnlsGrouping_02_Trt_1
    - groupingId: AnlsGrouping_06_Soc
      groupValue: METABOLISM AND NUTRITION DISORDERS
    - groupingId: AnlsGrouping_07_Pt
      groupValue: DIABETES MELLITUS
    rawValue: '1.1628'
    formattedValue: (  1.2)
  - operationId: Mth01_CatVar_ByGrp_1_n
    resultGroups:
    - groupingId: AnlsGrouping_02_Trt
      groupId: AnlsGrouping_02_Trt_1
    - groupingId: AnlsGrouping_06_Soc
      groupValue: METABOLISM AND NUTRITION DISORDERS
    - groupingId: AnlsGrouping_07_Pt
      groupValue: FOOD CRAVING
    rawValue: '1'
    formattedValue: '1'
  - operationId: Mth01_CatVar_ByGrp_2_pct
    resultGroups:
    - groupingId: AnlsGrouping_02_Trt
      groupId: AnlsGrouping_02_Trt_1
    - groupingId: AnlsGrouping_06_Soc
      groupValue: METABOLISM AND NUTRITION DISORDERS
    - groupingId: AnlsGrouping_07_Pt
      groupValue: FOOD CRAVING
    rawValue: '1.1628'
    formattedValue: (  1.2)
  - operationId: Mth01_CatVar_ByGrp_1_n
    resultGroups:
    - groupingId: AnlsGrouping_02_Trt
      groupId: AnlsGrouping_02_Trt_1
    - groupingId: AnlsGrouping_06_Soc
      groupValue: METABOLISM AND NUTRITION DISORDERS
    - groupingId: AnlsGrouping_07_Pt
      groupValue: HYPONATRAEMIA
    rawValue: '1'
    formattedValue: '1'
  - operationId: Mth01_CatVar_ByGrp_2_pct
    resultGroups:
    - groupingId: AnlsGrouping_02_Trt
      groupId: AnlsGrouping_02_Trt_1
    - groupingId: AnlsGrouping_06_Soc
      groupValue: METABOLISM AND NUTRITION DISORDERS
    - groupingId: AnlsGrouping_07_Pt
      groupValue: HYPONATRAEMIA
    rawValue: '1.1628'
    formattedValue: (  1.2)
  - operationId: Mth01_CatVar_ByGrp_1_n
    resultGroups:
    - groupingId: AnlsGrouping_02_Trt
      groupId: AnlsGrouping_02_Trt_1
    - groupingId: AnlsGrouping_06_Soc
      groupValue: METABOLISM AND NUTRITION DISORDERS
    - groupingId: AnlsGrouping_07_Pt
      groupValue: INCREASED APPETITE
    rawValue: '1'
    formattedValue: '1'
  - operationId: Mth01_CatVar_ByGrp_2_pct
    resultGroups:
    - groupingId: AnlsGrouping_02_Trt
      groupId: AnlsGrouping_02_Trt_1
    - groupingId: AnlsGrouping_06_Soc
      groupValue: METABOLISM AND NUTRITION DISORDERS
    - groupingId: AnlsGrouping_07_Pt
      groupValue: INCREASED APPETITE
    rawValue: '1.1628'
    formattedValue: (  1.2)
  - operationId: Mth01_CatVar_ByGrp_1_n
    resultGroups:
    - groupingId: AnlsGrouping_02_Trt
      groupId: AnlsGrouping_02_Trt_1
    - groupingId: AnlsGrouping_06_Soc
      groupValue: MUSCULOSKELETAL AND CONNECTIVE TISSUE DISORDERS
    - groupingId: AnlsGrouping_07_Pt
      groupValue: ARTHRALGIA
    rawValue: '1'
    formattedValue: '1'
  - operationId: Mth01_CatVar_ByGrp_2_pct
    resultGroups:
    - groupingId: AnlsGrouping_02_Trt
      groupId: AnlsGrouping_02_Trt_1
    - groupingId: AnlsGrouping_06_Soc
      groupValue: MUSCULOSKELETAL AND CONNECTIVE TISSUE DISORDERS
    - groupingId: AnlsGrouping_07_Pt
      groupValue: ARTHRALGIA
    rawValue: '1.1628'
    formattedValue: (  1.2)
  - operationId: Mth01_CatVar_ByGrp_1_n
    resultGroups:
    - groupingId: AnlsGrouping_02_Trt
      groupId: AnlsGrouping_02_Trt_1
    - groupingId: AnlsGrouping_06_Soc
      groupValue: MUSCULOSKELETAL AND CONNECTIVE TISSUE DISORDERS
    - groupingId: AnlsGrouping_07_Pt
      groupValue: ARTHRITIS
    rawValue: '0'
    formattedValue: '0'
  - operationId: Mth01_CatVar_ByGrp_2_pct
    resultGroups:
    - groupingId: AnlsGrouping_02_Trt
      groupId: AnlsGrouping_02_Trt_1
    - groupingId: AnlsGrouping_06_Soc
      groupValue: MUSCULOSKELETAL AND CONNECTIVE TISSUE DISORDERS
    - groupingId: AnlsGrouping_07_Pt
      groupValue: ARTHRITIS
    rawValue: '0'
    formattedValue: (  0.0)
  - operationId: Mth01_CatVar_ByGrp_1_n
    resultGroups:
    - groupingId: AnlsGrouping_02_Trt
      groupId: AnlsGrouping_02_Trt_1
    - groupingId: AnlsGrouping_06_Soc
      groupValue: MUSCULOSKELETAL AND CONNECTIVE TISSUE DISORDERS
    - groupingId: AnlsGrouping_07_Pt
      groupValue: BACK PAIN
    rawValue: '1'
    formattedValue: '1'
  - operationId: Mth01_CatVar_ByGrp_2_pct
    resultGroups:
    - groupingId: AnlsGrouping_02_Trt
      groupId: AnlsGrouping_02_Trt_1
    - groupingId: AnlsGrouping_06_Soc
      groupValue: MUSCULOSKELETAL AND CONNECTIVE TISSUE DISORDERS
    - groupingId: AnlsGrouping_07_Pt
      groupValue: BACK PAIN
    rawValue: '1.1628'
    formattedValue: (  1.2)
  - operationId: Mth01_CatVar_ByGrp_1_n
    resultGroups:
    - groupingId: AnlsGrouping_02_Trt
      groupId: AnlsGrouping_02_Trt_1
    - groupingId: AnlsGrouping_06_Soc
      groupValue: MUSCULOSKELETAL AND CONNECTIVE TISSUE DISORDERS
    - groupingId: AnlsGrouping_07_Pt
      groupValue: FLANK PAIN
    rawValue: '0'
    formattedValue: '0'
  - operationId: Mth01_CatVar_ByGrp_2_pct
    resultGroups:
    - groupingId: AnlsGrouping_02_Trt
      groupId: AnlsGrouping_02_Trt_1
    - groupingId: AnlsGrouping_06_Soc
      groupValue: MUSCULOSKELETAL AND CONNECTIVE TISSUE DISORDERS
    - groupingId: AnlsGrouping_07_Pt
      groupValue: FLANK PAIN
    rawValue: '0'
    formattedValue: (  0.0)
  - operationId: Mth01_CatVar_ByGrp_1_n
    resultGroups:
    - groupingId: AnlsGrouping_02_Trt
      groupId: AnlsGrouping_02_Trt_1
    - groupingId: AnlsGrouping_06_Soc
      groupValue: MUSCULOSKELETAL AND CONNECTIVE TISSUE DISORDERS
    - groupingId: AnlsGrouping_07_Pt
      groupValue: MUSCLE SPASMS
    rawValue: '0'
    formattedValue: '0'
  - operationId: Mth01_CatVar_ByGrp_2_pct
    resultGroups:
    - groupingId: AnlsGrouping_02_Trt
      groupId: AnlsGrouping_02_Trt_1
    - groupingId: AnlsGrouping_06_Soc
      groupValue: MUSCULOSKELETAL AND CONNECTIVE TISSUE DISORDERS
    - groupingId: AnlsGrouping_07_Pt
      groupValue: MUSCLE SPASMS
    rawValue: '0'
    formattedValue: (  0.0)
  - operationId: Mth01_CatVar_ByGrp_1_n
    resultGroups:
    - groupingId: AnlsGrouping_02_Trt
      groupId: AnlsGrouping_02_Trt_1
    - groupingId: AnlsGrouping_06_Soc
      groupValue: MUSCULOSKELETAL AND CONNECTIVE TISSUE DISORDERS
    - groupingId: AnlsGrouping_07_Pt
      groupValue: MUSCULAR WEAKNESS
    rawValue: '0'
    formattedValue: '0'
  - operationId: Mth01_CatVar_ByGrp_2_pct
    resultGroups:
    - groupingId: AnlsGrouping_02_Trt
      groupId: AnlsGrouping_02_Trt_1
    - groupingId: AnlsGrouping_06_Soc
      groupValue: MUSCULOSKELETAL AND CONNECTIVE TISSUE DISORDERS
    - groupingId: AnlsGrouping_07_Pt
      groupValue: MUSCULAR WEAKNESS
    rawValue: '0'
    formattedValue: (  0.0)
  - operationId: Mth01_CatVar_ByGrp_1_n
    resultGroups:
    - groupingId: AnlsGrouping_02_Trt
      groupId: AnlsGrouping_02_Trt_1
    - groupingId: AnlsGrouping_06_Soc
      groupValue: MUSCULOSKELETAL AND CONNECTIVE TISSUE DISORDERS
    - groupingId: AnlsGrouping_07_Pt
      groupValue: MYALGIA
    rawValue: '0'
    formattedValue: '0'
  - operationId: Mth01_CatVar_ByGrp_2_pct
    resultGroups:
    - groupingId: AnlsGrouping_02_Trt
      groupId: AnlsGrouping_02_Trt_1
    - groupingId: AnlsGrouping_06_Soc
      groupValue: MUSCULOSKELETAL AND CONNECTIVE TISSUE DISORDERS
    - groupingId: AnlsGrouping_07_Pt
      groupValue: MYALGIA
    rawValue: '0'
    formattedValue: (  0.0)
  - operationId: Mth01_CatVar_ByGrp_1_n
    resultGroups:
    - groupingId: AnlsGrouping_02_Trt
      groupId: AnlsGrouping_02_Trt_1
    - groupingId: AnlsGrouping_06_Soc
      groupValue: MUSCULOSKELETAL AND CONNECTIVE TISSUE DISORDERS
    - groupingId: AnlsGrouping_07_Pt
      groupValue: PAIN IN EXTREMITY
    rawValue: '1'
    formattedValue: '1'
  - operationId: Mth01_CatVar_ByGrp_2_pct
    resultGroups:
    - groupingId: AnlsGrouping_02_Trt
      groupId: AnlsGrouping_02_Trt_1
    - groupingId: AnlsGrouping_06_Soc
      groupValue: MUSCULOSKELETAL AND CONNECTIVE TISSUE DISORDERS
    - groupingId: AnlsGrouping_07_Pt
      groupValue: PAIN IN EXTREMITY
    rawValue: '1.1628'
    formattedValue: (  1.2)
  - operationId: Mth01_CatVar_ByGrp_1_n
    resultGroups:
    - groupingId: AnlsGrouping_02_Trt
      groupId: AnlsGrouping_02_Trt_1
    - groupingId: AnlsGrouping_06_Soc
      groupValue: MUSCULOSKELETAL AND CONNECTIVE TISSUE DISORDERS
    - groupingId: AnlsGrouping_07_Pt
      groupValue: SHOULDER PAIN
    rawValue: '1'
    formattedValue: '1'
  - operationId: Mth01_CatVar_ByGrp_2_pct
    resultGroups:
    - groupingId: AnlsGrouping_02_Trt
      groupId: AnlsGrouping_02_Trt_1
    - groupingId: AnlsGrouping_06_Soc
      groupValue: MUSCULOSKELETAL AND CONNECTIVE TISSUE DISORDERS
    - groupingId: AnlsGrouping_07_Pt
      groupValue: SHOULDER PAIN
    rawValue: '1.1628'
    formattedValue: (  1.2)
  - operationId: Mth01_CatVar_ByGrp_1_n
    resultGroups:
    - groupingId: AnlsGrouping_02_Trt
      groupId: AnlsGrouping_02_Trt_1
    - groupingId: AnlsGrouping_06_Soc
      groupValue: NEOPLASMS BENIGN, MALIGNANT AND UNSPECIFIED (INCL CYSTS AND POLYPS)
    - groupingId: AnlsGrouping_07_Pt
      groupValue: COLON CANCER
    rawValue: '0'
    formattedValue: '0'
  - operationId: Mth01_CatVar_ByGrp_2_pct
    resultGroups:
    - groupingId: AnlsGrouping_02_Trt
      groupId: AnlsGrouping_02_Trt_1
    - groupingId: AnlsGrouping_06_Soc
      groupValue: NEOPLASMS BENIGN, MALIGNANT AND UNSPECIFIED (INCL CYSTS AND POLYPS)
    - groupingId: AnlsGrouping_07_Pt
      groupValue: COLON CANCER
    rawValue: '0'
    formattedValue: (  0.0)
  - operationId: Mth01_CatVar_ByGrp_1_n
    resultGroups:
    - groupingId: AnlsGrouping_02_Trt
      groupId: AnlsGrouping_02_Trt_1
    - groupingId: AnlsGrouping_06_Soc
      groupValue: NEOPLASMS BENIGN, MALIGNANT AND UNSPECIFIED (INCL CYSTS AND POLYPS)
    - groupingId: AnlsGrouping_07_Pt
      groupValue: MALIGNANT FIBROUS HISTIOCYTOMA
    rawValue: '0'
    formattedValue: '0'
  - operationId: Mth01_CatVar_ByGrp_2_pct
    resultGroups:
    - groupingId: AnlsGrouping_02_Trt
      groupId: AnlsGrouping_02_Trt_1
    - groupingId: AnlsGrouping_06_Soc
      groupValue: NEOPLASMS BENIGN, MALIGNANT AND UNSPECIFIED (INCL CYSTS AND POLYPS)
    - groupingId: AnlsGrouping_07_Pt
      groupValue: MALIGNANT FIBROUS HISTIOCYTOMA
    rawValue: '0'
    formattedValue: (  0.0)
  - operationId: Mth01_CatVar_ByGrp_1_n
    resultGroups:
    - groupingId: AnlsGrouping_02_Trt
      groupId: AnlsGrouping_02_Trt_1
    - groupingId: AnlsGrouping_06_Soc
      groupValue: NEOPLASMS BENIGN, MALIGNANT AND UNSPECIFIED (INCL CYSTS AND POLYPS)
    - groupingId: AnlsGrouping_07_Pt
      groupValue: PROSTATE CANCER
    rawValue: '0'
    formattedValue: '0'
  - operationId: Mth01_CatVar_ByGrp_2_pct
    resultGroups:
    - groupingId: AnlsGrouping_02_Trt
      groupId: AnlsGrouping_02_Trt_1
    - groupingId: AnlsGrouping_06_Soc
      groupValue: NEOPLASMS BENIGN, MALIGNANT AND UNSPECIFIED (INCL CYSTS AND POLYPS)
    - groupingId: AnlsGrouping_07_Pt
      groupValue: PROSTATE CANCER
    rawValue: '0'
    formattedValue: (  0.0)
  - operationId: Mth01_CatVar_ByGrp_1_n
    resultGroups:
    - groupingId: AnlsGrouping_02_Trt
      groupId: AnlsGrouping_02_Trt_1
    - groupingId: AnlsGrouping_06_Soc
      groupValue: NERVOUS SYSTEM DISORDERS
    - groupingId: AnlsGrouping_07_Pt
      groupValue: AMNESIA
    rawValue: '0'
    formattedValue: '0'
  - operationId: Mth01_CatVar_ByGrp_2_pct
    resultGroups:
    - groupingId: AnlsGrouping_02_Trt
      groupId: AnlsGrouping_02_Trt_1
    - groupingId: AnlsGrouping_06_Soc
      groupValue: NERVOUS SYSTEM DISORDERS
    - groupingId: AnlsGrouping_07_Pt
      groupValue: AMNESIA
    rawValue: '0'
    formattedValue: (  0.0)
  - operationId: Mth01_CatVar_ByGrp_1_n
    resultGroups:
    - groupingId: AnlsGrouping_02_Trt
      groupId: AnlsGrouping_02_Trt_1
    - groupingId: AnlsGrouping_06_Soc
      groupValue: NERVOUS SYSTEM DISORDERS
    - groupingId: AnlsGrouping_07_Pt
      groupValue: BALANCE DISORDER
    rawValue: '0'
    formattedValue: '0'
  - operationId: Mth01_CatVar_ByGrp_2_pct
    resultGroups:
    - groupingId: AnlsGrouping_02_Trt
      groupId: AnlsGrouping_02_Trt_1
    - groupingId: AnlsGrouping_06_Soc
      groupValue: NERVOUS SYSTEM DISORDERS
    - groupingId: AnlsGrouping_07_Pt
      groupValue: BALANCE DISORDER
    rawValue: '0'
    formattedValue: (  0.0)
  - operationId: Mth01_CatVar_ByGrp_1_n
    resultGroups:
    - groupingId: AnlsGrouping_02_Trt
      groupId: AnlsGrouping_02_Trt_1
    - groupingId: AnlsGrouping_06_Soc
      groupValue: NERVOUS SYSTEM DISORDERS
    - groupingId: AnlsGrouping_07_Pt
      groupValue: BURNING SENSATION
    rawValue: '0'
    formattedValue: '0'
  - operationId: Mth01_CatVar_ByGrp_2_pct
    resultGroups:
    - groupingId: AnlsGrouping_02_Trt
      groupId: AnlsGrouping_02_Trt_1
    - groupingId: AnlsGrouping_06_Soc
      groupValue: NERVOUS SYSTEM DISORDERS
    - groupingId: AnlsGrouping_07_Pt
      groupValue: BURNING SENSATION
    rawValue: '0'
    formattedValue: (  0.0)
  - operationId: Mth01_CatVar_ByGrp_1_n
    resultGroups:
    - groupingId: AnlsGrouping_02_Trt
      groupId: AnlsGrouping_02_Trt_1
    - groupingId: AnlsGrouping_06_Soc
      groupValue: NERVOUS SYSTEM DISORDERS
    - groupingId: AnlsGrouping_07_Pt
      groupValue: COGNITIVE DISORDER
    rawValue: '0'
    formattedValue: '0'
  - operationId: Mth01_CatVar_ByGrp_2_pct
    resultGroups:
    - groupingId: AnlsGrouping_02_Trt
      groupId: AnlsGrouping_02_Trt_1
    - groupingId: AnlsGrouping_06_Soc
      groupValue: NERVOUS SYSTEM DISORDERS
    - groupingId: AnlsGrouping_07_Pt
      groupValue: COGNITIVE DISORDER
    rawValue: '0'
    formattedValue: (  0.0)
  - operationId: Mth01_CatVar_ByGrp_1_n
    resultGroups:
    - groupingId: AnlsGrouping_02_Trt
      groupId: AnlsGrouping_02_Trt_1
    - groupingId: AnlsGrouping_06_Soc
      groupValue: NERVOUS SYSTEM DISORDERS
    - groupingId: AnlsGrouping_07_Pt
      groupValue: COMPLEX PARTIAL SEIZURES
    rawValue: '0'
    formattedValue: '0'
  - operationId: Mth01_CatVar_ByGrp_2_pct
    resultGroups:
    - groupingId: AnlsGrouping_02_Trt
      groupId: AnlsGrouping_02_Trt_1
    - groupingId: AnlsGrouping_06_Soc
      groupValue: NERVOUS SYSTEM DISORDERS
    - groupingId: AnlsGrouping_07_Pt
      groupValue: COMPLEX PARTIAL SEIZURES
    rawValue: '0'
    formattedValue: (  0.0)
  - operationId: Mth01_CatVar_ByGrp_1_n
    resultGroups:
    - groupingId: AnlsGrouping_02_Trt
      groupId: AnlsGrouping_02_Trt_1
    - groupingId: AnlsGrouping_06_Soc
      groupValue: NERVOUS SYSTEM DISORDERS
    - groupingId: AnlsGrouping_07_Pt
      groupValue: COORDINATION ABNORMAL
    rawValue: '0'
    formattedValue: '0'
  - operationId: Mth01_CatVar_ByGrp_2_pct
    resultGroups:
    - groupingId: AnlsGrouping_02_Trt
      groupId: AnlsGrouping_02_Trt_1
    - groupingId: AnlsGrouping_06_Soc
      groupValue: NERVOUS SYSTEM DISORDERS
    - groupingId: AnlsGrouping_07_Pt
      groupValue: COORDINATION ABNORMAL
    rawValue: '0'
    formattedValue: (  0.0)
  - operationId: Mth01_CatVar_ByGrp_1_n
